Folder: remob2/data/processed/Run1_XRD (part 5)

File: 21_ReMoB2_25p0GPa_0psi_release_P1_C4_D1w_144.dat
2.82731  0.577224
2.90325  0.51436
2.9792  1.18017
3.05514  0.523853
3.13109  1.43125
3.20703  1.78893
3.28298  2.57921
3.35892  7.25657
3.43487  17.8088
3.51081  16.5081
3.58676  5.09321
3.6627  3.26154
3.73864  2.14129
3.81459  1.69393
3.89053  0.66807
3.96648  0.866992
4.04242  0.529261
4.11837  1.06265
4.19431  0.836903
4.27026  0.395159
4.3462  0.711382
4.42215  0.197962
4.49809  -0.180944
4.57404  0.108011
4.64998  1.15104
4.72593  0.606856
4.80187  0.680426
4.87782  1.42593
4.95376  1.47225
5.02971  0.352431
5.10565  1.16682
5.1816  -0.196121
5.25754  0.786977
5.33349  -0.333311
5.40943  0.347456
5.48537  0.411929
5.56132  0.697708
5.63726  1.47736
5.71321  1.95405
5.78915  1.43955
5.8651  0.68344
5.94104  1.69192
6.01699  0.0698891
6.09293  -0.0767765
6.16888  -0.0276759
6.24482  1.76124
6.32077  3.85752
6.39671  3.66057
6.47266  3.53019
6.5486  5.59559
6.62455  13.8449
6.70049  20.0378
6.77644  25.6662
6.85238  59.8113
6.92833  120.131
7.00427  95.1554
7.08021  40.305
7.15616  14.3631
7.2321  6.014
7.30805  2.72347
7.38399  2.10872
7.45994  1.44179
7.53588  0.42822
7.61183  0.41278
7.68777  0.784505
7.76372  0.812496
7.83966  -0.440422
7.91561  0.0152031
7.99155  0.146622
8.0675  -0.36409
8.14344  -0.00577827
8.21939  -0.804579
8.29533  -0.439414
8.37128  -0.553692
8.44722  1.90768
8.52317  4.80738
8.59911  8.50809
8.67506  14.7965
8.751  22.6308
8.82694  36.1149
8.90289  63.1715
8.97883  131.886
9.05478  295.46
9.13072  385.778
9.20667  368.086
9.28261  485.598
9.35856  709.732
9.4345  698.249
9.51045  436.186
9.58639  237.016
9.66234  143.888
9.73828  73.8813
9.81423  27.7929
9.89017  7.31573
9.96612  2.00481
10.0421  -1.34659
10.118  -2.19096
10.194  -2.61237
10.2699  -1.10322
10.3458  2.19612
10.4218  7.84693
10.4977  13.356
10.5737  20.7447
10.6496  26.4615
10.7256  34.8672
10.8015  41.0414
10.8775  43.2774
10.9534  42.4195
11.0293  36.7626
11.1053  23.5093
11.1812  11.4635
11.2572  3.07161
11.3331  -0.446034
11.4091  3.73231
11.485  13.3213
11.561  52.4093
11.6369  107.8
11.7128  182.09
11.7888  243.977
11.8647  207.778
11.9407  134.946
12.0166  89.4978
12.0926  65.1289
12.1685  43.5431
12.2445  30.7732
12.3204  21.8173
12.3963  18.9183
12.4723  18.4319
12.5482  19.8463
12.6242  21.5795
12.7001  20.4419
12.7761  21.84
12.852  23.6226
12.928  24.3271
13.0039  22.5382
13.0799  18.909
13.1558  14.9095
13.2317  11.9739
13.3077  7.26017
13.3836  2.95441
13.4596  -0.91123
13.5355  -2.11396
13.6115  -1.17592
13.6874  2.59515
13.7634  6.06403
13.8393  10.0736
13.9152  11.951
13.9912  9.04265
14.0671  5.58514
14.1431  2.53078
14.219  0.173173
14.295  -0.367895
14.3709  0.352304
14.4469  -0.0838555
14.5228  -0.158307
14.5987  0.0109522
14.6747  0.350188
14.7506  0.054168
14.8266  0.556502
14.9025  0.372997
14.9785  -0.134472
15.0544  -0.396161
15.1304  0.547542
15.2063  1.24985
15.2823  0.899126
15.3582  1.51237
15.4341  3.29671
15.5101  5.39587
15.586  9.07326
15.662  13.306
15.7379  18.6613
15.8139  21.9065
15.8898  22.9117
15.9658  25.1066
16.0417  31.4127
16.1176  47.8631
16.1936  62.6591
16.2695  60.2773
16.3455  35.4536
16.4214  15.4372
16.4974  6.81071
16.5733  3.40557
16.6493  1.92138
16.7252  0.570391
16.8011  -0.0249748
16.8771  -0.652481
16.953  -1.07469
17.029  -0.754833
17.1049  0.101104
17.1809  2.30986
17.2568  8.63483
17.3328  21.2349
17.4087  40.6179
17.4846  64.358
17.5606  88.7275
17.6365  118.386
17.7125  132.054
17.7884  108.045
17.8644  76.2516
17.9403  58.4461
18.0163  49.8035
18.0922  32.7182
18.1682  16.5228
18.2441  9.81376
18.32  7.32101
18.396  6.98857
18.4719  7.96864
18.5479  12.5082
18.6238  18.5475
18.6998  23.3562
18.7757  22.4225
18.8517  16.2682
18.9276  7.82049
19.0035  2.69111
19.0795  0.614784
19.1554  -0.00188423
19.2314  2.11849
19.3073  7.45275
19.3833  16.3343
19.4592  24.7538
19.5352  28.4085
19.6111  28.661
19.687  28.7706
19.763  27.4498
19.8389  22.7666
19.9149  18.7401
19.9908  15.7185
20.0668  12.6922
20.1427  10.7327
20.2187  10.1235
20.2946  9.15653
20.3706  9.20124
20.4465  9.36748
20.5224  9.48707
20.5984  10.3217
20.6743  11.1307
20.7503  12.2558
20.8262  13.1012
20.9022  13.3033
20.9781  12.5864
21.0541  10.2541
21.13  7.47266
21.2059  4.728
21.2819  1.95692
21.3578  0.164382
21.4338  -0.234365
21.5097  0.539442
21.5857  1.36951
21.6616  4.52097
21.7376  7.15526
21.8135  10.4805
21.8894  11.0231
21.9654  6.14441
22.0413  2.15395
22.1173  0.0211368
22.1932  -0.289106
22.2692  -0.0020743
22.3451  0.19483
22.4211  0.768609
22.497  0.189047
22.5729  -0.0978001
22.6489  -0.0991561
22.7248  0.0296625
22.8008  0.0642437
22.8767  0.150221
22.9527  -0.0304316
23.0286  0.198179
23.1046  0.419816
23.1805  0.111918
23.2565  0.320997
23.3324  0.0677126
23.4083  -0.131271
23.4843  0.161292
23.5602  0.424483
23.6362  0.246694
23.7121  -0.0202516
23.7881  -0.102225
23.864  0.00272313
23.94  0.0615983
24.0159  0.224559
24.0918  -0.152221
24.1678  0.0805515
24.2437  0.0444902