Folder: remob2/data/processed/Run1_XRD (part 3)

File: 11_ReMoB2_52p0GPa_520psi_P1_C4_D1w_083.dat
2.82731  0.410008
2.90325  1.14771
2.9792  1.11339
3.05514  1.15953
3.13109  1.94455
3.20703  1.59342
3.28298  2.92973
3.35892  3.92528
3.43487  11.645
3.51081  37.7305
3.58676  14.7026
3.6627  3.37633
3.73864  1.49318
3.81459  1.87567
3.89053  0.156667
3.96648  1.53964
4.04242  0.0695828
4.11837  1.08561
4.19431  0.911415
4.27026  0.269677
4.3462  0.82147
4.42215  0.884941
4.49809  0.739905
4.57404  0.0964966
4.64998  0.876042
4.72593  0.74806
4.80187  0.526657
4.87782  0.113565
4.95376  0.954236
5.02971  0.451762
5.10565  0.500412
5.1816  0.20251
5.25754  1.30438
5.33349  1.64026
5.40943  -0.275447
5.48537  0.890418
5.56132  1.36142
5.63726  1.98165
5.71321  1.76551
5.78915  0.867285
5.8651  0.772946
5.94104  -0.0385051
6.01699  0.318768
6.09293  0.438761
6.16888  0.0821066
6.24482  -0.2072
6.32077  1.08578
6.39671  2.75039
6.47266  3.7403
6.5486  3.99372
6.62455  5.67327
6.70049  17.2757
6.77644  33.2714
6.85238  34.417
6.92833  62.5928
7.00427  182.718
7.08021  208.061
7.15616  75.9478
7.2321  22.9047
7.30805  9.14592
7.38399  4.87798
7.45994  3.27742
7.53588  1.85568
7.61183  0.307644
7.68777  0.59886
7.76372  0.88483
7.83966  0.872623
7.91561  0.372811
7.99155  0.322813
8.0675  0.231389
8.14344  -0.0272363
8.21939  0.0407782
8.29533  0.0207961
8.37128  0.00368305
8.44722  0.831476
8.52317  1.42942
8.59911  1.09565
8.67506  0.124559
8.751  0.30932
8.82694  -0.377827
8.90289  -0.751308
8.97883  0.728941
9.05478  4.79425
9.13072  18.1145
9.20667  61.5494
9.28261  148.288
9.35856  276.84
9.4345  379.013
9.51045  712.613
9.58639  1062.57
9.66234  1023.31
9.73828  640.187
9.81423  295.375
9.89017  121.474
9.96612  48.9161
10.0421  17.0459
10.118  5.58179
10.194  1.43962
10.2699  -1.2931
10.3458  -1.19135
10.4218  -2.14443
10.4977  2.61332
10.5737  11.8666
10.6496  17.9827
10.7256  30.4523
10.8015  47.8965
10.8775  66.4121
10.9534  82.1946
11.0293  100.366
11.1053  110.152
11.1812  94.843
11.2572  82.1985
11.3331  93.9675
11.4091  79.47
11.485  36.6667
11.561  14.8391
11.6369  5.35218
11.7128  0.226367
11.7888  -0.563196
11.8647  1.76895
11.9407  5.87623
12.0166  11.9788
12.0926  29.9187
12.1685  70.5953
12.2445  61.8138
12.3204  24.1922
12.3963  17.2113
12.4723  22.4126
12.5482  39.2786
12.6242  78.1675
12.7001  117.623
12.7761  118.751
12.852  104.989
12.928  100.636
13.0039  106.017
13.0799  112.623
13.1558  111.247
13.2317  99.652
13.3077  80.9116
13.3836  59.947
13.4596  50.2597
13.5355  49.6054
13.6115  34.8529
13.6874  11.5168
13.7634  -1.26649
13.8393  -1.56622
13.9152  0.970661
13.9912  6.81398
14.0671  15.3234
14.1431  16.8588
14.219  7.87266
14.295  2.9905
14.3709  1.26131
14.4469  0.116181
14.5228  -0.578436
14.5987  -0.423767
14.6747  -0.0348169
14.7506  0.270128
14.8266  0.312291
14.9025  -0.289304
14.9785  0.395665
15.0544  1.06609
15.1304  1.15986
15.2063  0.368753
15.2823  -0.451742
15.3582  -0.0979087
15.4341  0.178127
15.5101  -0.262778
15.586  0.367308
15.662  0.688678
15.7379  1.35151
15.8139  2.38961
15.8898  3.99
15.9658  6.25166
16.0417  9.46395
16.1176  12.9067
16.1936  20.8534
16.2695  41.4145
16.3455  40.6058
16.4214  26.7031
16.4974  28.9827
16.5733  38.9832
16.6493  36.3843
16.7252  20.7186
16.8011  13.819
16.8771  9.1324
16.953  7.60228
17.029  5.99508
17.1049  2.92085
17.1809  0.685898
17.2568  -0.408483
17.3328  -0.880654
17.4087  -0.664993
17.4846  0.59002
17.5606  3.35043
17.6365  7.18807
17.7125  10.1431
17.7884  14.0036
17.8644  22.4811
17.9403  44.6826
18.0163  92.7443
18.0922  135.297
18.1682  127.467
18.2441  83.9265
18.32  49.8725
18.396  33.4313
18.4719  19.0309
18.5479  10.682
18.6238  7.08566
18.6998  6.51486
18.7757  8.55639
18.8517  13.0279
18.9276  19.099
19.0035  28.7311
19.0795  40.5534
19.1554  43.2009
19.2314  33.4873
19.3073  19.6478
19.3833  8.42511
19.4592  2.03702
19.5352  1.54633
19.6111  8.13148
19.687  23.9837
19.763  47.062
19.8389  65.1602
19.9149  67.3916
19.9908  57.9247
20.0668  45.0267
20.1427  31.3489
20.2187  24.1331
20.2946  19.8106
20.3706  17.2095
20.4465  14.2327
20.5224  12.506
20.5984  12.3078
20.6743  12.0078
20.7503  13.0541
20.8262  13.6669
20.9022  13.8107
20.9781  15.7377
21.0541  16.8309
21.13  17.4533
21.2059  15.9107
21.2819  12.7294
21.3578  9.48371
21.4338  6.45652
21.5097  2.67719
21.5857  0.141677
21.6616  -0.723857
21.7376  1.0261
21.8135  6.06745
21.8894  14.7201
21.9654  26.7098
22.0413  24.9831
22.1173  11.3869
22.1932  4.18265
22.2692  1.82164
22.3451  -0.194468
22.4211  -0.796531
22.497  0.0812198
22.5729  1.66575
22.6489  1.73157
22.7248  3.59778
22.8008  1.41374
22.8767  -0.265186
22.9527  -0.00421618
23.0286  0.360718
23.1046  0.468756
23.1805  0.42023
23.2565  -0.0358996
23.3324  0.36209
23.4083  0.498275
23.4843  0.0243342
23.5602  -0.123759
23.6362  0.268452
23.7121  0.444981
23.7881  0.0830091
23.864  0.297048
23.94  0.372404
24.0159  -0.0979675
24.0918  -0.0680464
24.1678  0.16048
24.2437  -0.0409469

File: 12_ReMoB2_60p0GPa_545psi_P1_C4_D1w_089.dat
2.82731  0.576884
2.90325  -0.111832
2.9792  1.52194
3.05514  1.47044
3.13109  1.42715
3.20703  1.25879
3.28298  2.86518
3.35892  3.45959
3.43487  10.0833
3.51081  34.334
3.58676  18.1511
3.6627  3.47757
3.73864  1.75712
3.81459  1.59339
3.89053  1.42428
3.96648  1.05697
4.04242  0.523209
4.11837  1.16614
4.19431  0.811664
4.27026  0.897458
4.3462  0.415196
4.42215  0.15714
4.49809  -0.390445
4.57404  0.17674
4.64998  0.147187
4.72593  1.16731
4.80187  1.09257
4.87782  0.694001
4.95376  1.1759
5.02971  1.68025
5.10565  0.140818
5.1816  -0.213073
5.25754  0.499886
5.33349  0.362136
5.40943  1.05159
5.48537  0.651068
5.56132  1.0078
5.63726  0.800145
5.71321  2.15797
5.78915  1.25703
5.8651  1.42485
5.94104  0.505632
6.01699  1.12122
6.09293  0.771901
6.16888  -0.507374
6.24482  1.21528
6.32077  1.64178
6.39671  2.39542
6.47266  5.888
6.5486  3.38183
6.62455  5.22198
6.70049  13.9485
6.77644  33.5247
6.85238  36.3341
6.92833  50.2089
7.00427  146.721
7.08021  232.278
7.15616  100.185
7.2321  28.5677
7.30805  11.0049
7.38399  5.80332
7.45994  2.67359
7.53588  1.83546
7.61183  0.167713
7.68777  0.689847
7.76372  1.48509
7.83966  -0.115938
7.91561  0.381902
7.99155  -0.367671
8.0675  -0.386748
8.14344  0.510793
8.21939  -0.255709
8.29533  0.281819
8.37128  0.540046
8.44722  0.909063
8.52317  1.53693
8.59911  0.859648
8.67506  0.246186
8.751  -0.41027
8.82694  -1.27426
8.90289  0.0207571
8.97883  0.809108
9.05478  4.81412
9.13072  16.0876
9.20667  61.1084
9.28261  232.612
9.35856  537.334
9.4345  489.499
9.51045  585.12
9.58639  1078.09
9.66234  1123.68
9.73828  758.931
9.81423  370.74
9.89017  172.637
9.96612  77.6578
10.0421  30.159
10.118  9.74984
10.194  2.05576
10.2699  -1.06244
10.3458  -1.31091
10.4218  -1.9228
10.4977  -0.386416
10.5737  8.33948
10.6496  13.6765
10.7256  19.8967
10.8015  33.9631
10.8775  52.6576
10.9534  69.5192
11.0293  87.3718
11.1053  104.897
11.1812  98.8786
11.2572  82.7426
11.3331  84.0214
11.4091  79.3885
11.485  45.2883
11.561  17.745
11.6369  8.46435
11.7128  1.77158
11.7888  -0.349457
11.8647  -0.0779211
11.9407  2.99772
12.0166  11.6761
12.0926  33.4212
12.1685  78.1893
12.2445  100.675
12.3204  44.7745
12.3963  19.5565
12.4723  19.2003
12.5482  25.9356
12.6242  44.3103
12.7001  78.2085
12.7761  104.154
12.852  106.754
12.928  103.699
13.0039  105.165
13.0799  107.447
13.1558  114.856
13.2317  108.339
13.3077  91.0203
13.3836  66.9775
13.4596  49.9516
13.5355  39.8203
13.6115  30.522
13.6874  14.4872
13.7634  1.13489
13.8393  -2.17278
13.9152  1.60458
13.9912  7.12685
14.0671  14.2555
14.1431  23.9394
14.219  14.2159
14.295  5.9657
14.3709  2.38838
14.4469  0.073491
14.5228  -0.50969
14.5987  -0.221819
14.6747  -0.615436
14.7506  -0.590223
14.8266  0.481406
14.9025  -0.126601
14.9785  0.0549373
15.0544  0.549208
15.1304  1.43965
15.2063  1.16236
15.2823  0.0601871
15.3582  0.314402
15.4341  0.556904
15.5101  -0.136808
15.586  0.0958366
15.662  1.14212
15.7379  0.636171
15.8139  1.73973
15.8898  3.13866
15.9658  4.39169
16.0417  7.12358
16.1176  9.57841
16.1936  11.6749
16.2695  17.043
16.3455  21.5386
16.4214  19.4357
16.4974  23.3546
16.5733  39.7902
16.6493  55.526
16.7252  45.7477
16.8011  26.6149
16.8771  12.5336
16.953  7.552
17.029  6.45556
17.1049  4.39588
17.1809  1.10187
17.2568  -0.284824
17.3328  -0.867751
17.4087  -0.285392
17.4846  -0.0152328
17.5606  1.08097
17.6365  4.49658
17.7125  7.72302
17.7884  9.82777
17.8644  14.1947
17.9403  24.9683
18.0163  50.4135
18.0922  92.0385
18.1682  122.019
18.2441  93.7923
18.32  52.3797
18.396  33.9178
18.4719  25.2409
18.5479  15.7996
18.6238  8.21004
18.6998  7.49953
18.7757  7.27243
18.8517  10.1472
18.9276  12.785
19.0035  17.1268
19.0795  22.54
19.1554  29.2098
19.2314  29.9362
19.3073  20.6257
19.3833  11.0909
19.4592  3.8969
19.5352  1.59406
19.6111  3.03922
19.687  12.4766
19.763  31.697
19.8389  56.4681
19.9149  71.1612
19.9908  68.5297
20.0668  51.2313
20.1427  38.219
20.2187  29.1222
20.2946  23.81
20.3706  22.0355
20.4465  17.4224
20.5224  14.0873
20.5984  12.219
20.6743  11.0423
20.7503  11.2866
20.8262  11.2652
20.9022  11.6682
20.9781  12.8671
21.0541  12.695
21.13  13.4418
21.2059  12.2802
21.2819  10.3371
21.3578  7.17191
21.4338  4.43988
21.5097  2.21778
21.5857  1.09582
21.6616  0.184097
21.7376  -0.667252
21.8135  0.55448
21.8894  5.88879
21.9654  17.2547
22.0413  32.2695
22.1173  25.5445
22.1932  10.0998
22.2692  4.77994
22.3451  0.929755
22.4211  -0.244779
22.497  -0.217311
22.5729  1.39022
22.6489  1.59991
22.7248  0.737012
22.8008  -0.319058
22.8767  0.349723
22.9527  0.297254
23.0286  0.378348
23.1046  -0.0772569
23.1805  0.0246829
23.2565  0.240346
23.3324  0.194725
23.4083  0.341579
23.4843  0.67699
23.5602  0.100921
23.6362  0.301267
23.7121  0.259768
23.7881  0.215673
23.864  0.593201
23.94  0.258003
24.0159  -0.288921
24.0918  0.339017
24.1678  -0.346105
24.2437  -0.16141

File: 13_ReMoB2_62p0GPa_570psi_P1_C4_D1w_095.dat
2.82731  0.53628
2.90325  0.850924
2.9792  0.195001
3.05514  1.30747
3.13109  1.89673
3.20703  1.1436
3.28298  3.21744
3.35892  4.4392
3.43487  9.71871
3.51081  25.9194
3.58676  18.6059
3.6627  6.62114
3.73864  4.10095
3.81459  3.10877
3.89053  2.66216
3.96648  2.03115
4.04242  0.878651
4.11837  2.79897
4.19431  1.5468
4.27026  0.277842
4.3462  2.14141
4.42215  -0.223555
4.49809  0.5589
4.57404  -0.114288
4.64998  0.623422
4.72593  1.46562
4.80187  0.29823
4.87782  0.101464
4.95376  0.990044
5.02971  0.774549
5.10565  1.59038
5.1816  0.0828199
5.25754  0.468291
5.33349  -0.048937
5.40943  0.706651
5.48537  0.69632
5.56132  1.19966
5.63726  0.589233
5.71321  0.683376
5.78915  1.71747
5.8651  0.687477
5.94104  -0.230232
6.01699  -0.277413
6.09293  -0.292674
6.16888  0.439769
6.24482  -0.177647
6.32077  0.432624
6.39671  0.672078
6.47266  1.93108
6.5486  2.26158
6.62455  3.90692
6.70049  8.48668
6.77644  20.3753
6.85238  30.4767
6.92833  49.7871
7.00427  112.534
7.08021  175.74
7.15616  118.931
7.2321  53.0418
7.30805  25.8544
7.38399  14.5152
7.45994  9.22623
7.53588  5.77788
7.61183  3.62678
7.68777  3.44563
7.76372  1.6877
7.83966  0.23403
7.91561  1.0055
7.99155  0.600341
8.0675  -0.387827
8.14344  -0.242324
8.21939  0.0249278
8.29533  0.32885
8.37128  0.485464
8.44722  -0.138062
8.52317  1.08659
8.59911  0.862269
8.67506  0.105993
8.751  0.481516
8.82694  -0.678952
8.90289  -0.170741
8.97883  1.90087
9.05478  6.51584
9.13072  19.1742
9.20667  71.9367
9.28261  266.771
9.35856  437.753
9.4345  359.424
9.51045  418.549
9.58639  708.616
9.66234  876.579
9.73828  730.513
9.81423  411.649
9.89017  203.193
9.96612  88.5977
10.0421  34.6017
10.118  13.073
10.194  5.78665
10.2699  1.92893
10.3458  -1.89951
10.4218  -3.10498
10.4977  2.48617
10.5737  14.291
10.6496  25.74
10.7256  32.7274
10.8015  40.0638
10.8775  53.463
10.9534  69.8047
11.0293  90.0883
11.1053  118.163
11.1812  111.401
11.2572  86.8559
11.3331  60.2999
11.4091  31.7415
11.485  12.7355
11.561  4.88435
11.6369  0.92115
11.7128  -1.1129
11.7888  -1.45475
11.8647  -0.18483
11.9407  11.3837
12.0166  38.039
12.0926  100.501
12.1685  203.83
12.2445  245.123
12.3204  139.292
12.3963  67.5152
12.4723  52.7745
12.5482  60.3393
12.6242  80.6339
12.7001  90.6
12.7761  83.1038
12.852  78.0334
12.928  81.2646
13.0039  87.62
13.0799  94.7249
13.1558  105.677
13.2317  112.529
13.3077  105.082
13.3836  82.3993
13.4596  57.2014
13.5355  35.0443
13.6115  19.7768
13.6874  7.39097
13.7634  0.106723
13.8393  -2.37905
13.9152  -0.790476
13.9912  4.6972
14.0671  11.7434
14.1431  15.6254
14.219  13.0312
14.295  7.39518
14.3709  4.14417
14.4469  0.727051
14.5228  -0.450126
14.5987  0.0362876
14.6747  0.228034
14.7506  -0.637374
14.8266  -0.152432
14.9025  0.0765166
14.9785  0.276664
15.0544  0.166744
15.1304  0.348671
15.2063  1.61707
15.2823  -0.130363
15.3582  0.159124
15.4341  0.0915533
15.5101  -0.4428
15.586  0.345145
15.662  0.240165
15.7379  0.766256
15.8139  2.41054
15.8898  4.10845
15.9658  9.0203
16.0417  14.8736
16.1176  20.8436
16.1936  26.1138
16.2695  29.9117
16.3455  30.7276
16.4214  31.0609
16.4974  35.3668
16.5733  44.8187
16.6493  45.421
16.7252  35.582
16.8011  21.3322
16.8771  10.43
16.953  5.87751
17.029  4.56396
17.1049  5.51752
17.1809  3.28288
17.2568  0.17441
17.3328  -1.695
17.4087  -1.00373
17.4846  -0.527684
17.5606  0.611205
17.6365  3.51997
17.7125  7.03966
17.7884  14.505
17.8644  30.533
17.9403  53.9583
18.0163  82.0156
18.0922  113.401
18.1682  129.631
18.2441  107.585
18.32  72.2278
18.396  41.0148
18.4719  25.0952
18.5479  22.31
18.6238  25.0336
18.6998  26.578
18.7757  23.5074
18.8517  18.9581
18.9276  16.2293
19.0035  19.1765
19.0795  27.2435
19.1554  40.8186
19.2314  49.6093
19.3073  42.9845
19.3833  26.2875
19.4592  11.9637
19.5352  3.49389
19.6111  0.0579343
19.687  0.905958
19.763  7.67593
19.8389  22.6365
19.9149  41.0997
19.9908  46.5485
20.0668  37.5221
20.1427  35.8307
20.2187  46.1293
20.2946  57.6358
20.3706  52.9882
20.4465  38.4435
20.5224  26.4806
20.5984  19.962
20.6743  16.1583
20.7503  14.3786
20.8262  14.4404
20.9022  14.6075
20.9781  15.0389
21.0541  15.0757
21.13  15.6464
21.2059  15.4877
21.2819  15.7841
21.3578  15.165
21.4338  11.5421
21.5097  8.66031
21.5857  4.96067
21.6616  1.60056
21.7376  -0.434313
21.8135  -0.490616
21.8894  -0.320278
21.9654  2.76983
22.0413  6.67185
22.1173  10.4524
22.1932  8.54366
22.2692  3.0643
22.3451  0.501062
22.4211  0.12543
22.497  -0.279417
22.5729  -0.0434084
22.6489  0.737471
22.7248  0.941361
22.8008  0.651084
22.8767  0.00865643
22.9527  -0.155153
23.0286  0.389945
23.1046  -0.161978
23.1805  0.243097
23.2565  0.306575
23.3324  0.0667435
23.4083  -0.023358
23.4843  -0.0403965
23.5602  0.046683
23.6362  0.197256
23.7121  0.505159
23.7881  -0.029959
23.864  0.527958
23.94  -0.0432603
24.0159  -0.0595302
24.0918  0.235158
24.1678  -0.291133
24.2437  -0.204136

File: 14_ReMoB2_66p0GPa_595psi_P1_C4_D1w_102.dat
2.82731  0.488369
2.90325  0.408801
2.9792  0.909116
3.05514  0.344836
3.13109  1.72474
3.20703  1.58632
3.28298  3.00663
3.35892  3.71892
3.43487  8.5207
3.51081  22.6302
3.58676  17.1998
3.6627  4.50864
3.73864  2.42137
3.81459  1.56669
3.89053  1.23816
3.96648  0.464523
4.04242  0.032406
4.11837  1.80683
4.19431  0.646082
4.27026  1.24534
4.3462  0.495815
4.42215  0.346607
4.49809  0.00733088
4.57404  0.895512
4.64998  0.633236
4.72593  1.28985
4.80187  1.42183
4.87782  0.95
4.95376  0.186591
5.02971  0.144164
5.10565  0.826442
5.1816  0.629092
5.25754  0.960542
5.33349  0.590395
5.40943  0.72121
5.48537  0.547033
5.56132  0.371009
5.63726  0.298552
5.71321  0.880655
5.78915  1.00923
5.8651  0.572182
5.94104  0.615639
6.01699  1.89024
6.09293  1.60208
6.16888  0.701972
6.24482  0.149664
6.32077  1.20509
6.39671  5.97246
6.47266  10.3354
6.5486  3.77954
6.62455  2.71798
6.70049  5.60463
6.77644  12.7452
6.85238  23.4534
6.92833  35.0815
7.00427  88.1293
7.08021  160.322
7.15616  110.028
7.2321  40.2112
7.30805  13.5673
7.38399  7.23324
7.45994  4.20744
7.53588  1.68416
7.61183  0.850502
7.68777  1.02603
7.76372  0.745402
7.83966  -0.09024
7.91561  0.738453
7.99155  0.67089
8.0675  1.16638
8.14344  0.183337
8.21939  0.127219
8.29533  0.337608
8.37128  0.206079
8.44722  0.526041
8.52317  1.01674
8.59911  0.374039
8.67506  -0.449037
8.751  0.0514762
8.82694  -0.620978
8.90289  0.01727
8.97883  0.924109
9.05478  4.06382
9.13072  10.7313
9.20667  34.8406
9.28261  208.117
9.35856  606.151
9.4345  518.92
9.51045  426.542
9.58639  727.03
9.66234  971.455
9.73828  816.819
9.81423  493.809
9.89017  266.571
9.96612  136.124
10.0421  57.2282
10.118  22.844
10.194  7.03147
10.2699  0.977855
10.3458  -2.73361
10.4218  -0.122251
10.4977  2.15006
10.5737  2.53971
10.6496  6.69758
10.7256  12.3347
10.8015  22.3693
10.8775  38.9687
10.9534  56.843
11.0293  75.9966
11.1053  97.0411
11.1812  95.8337
11.2572  81.6616
11.3331  65.7041
11.4091  48.9525
11.485  31.7605
11.561  17.2632
11.6369  7.45918
11.7128  3.22615
11.7888  -0.773973
11.8647  -0.847682
11.9407  2.31821
12.0166  22.4611
12.0926  124.461
12.1685  343.391
12.2445  414.708
12.3204  245.055
12.3963  118.845
12.4723  62.4305
12.5482  45.572
12.6242  46.1482
12.7001  55.3557
12.7761  68.5522
12.852  83.7036
12.928  99.7741
13.0039  102.969
13.0799  99.7346
13.1558  97.0325
13.2317  88.9869
13.3077  79.1779
13.3836  67.5787
13.4596  53.1979
13.5355  36.2407
13.6115  22.164
13.6874  10.2658
13.7634  -0.124025
13.8393  -2.32117
13.9152  0.236181
13.9912  6.42127
14.0671  12.4778
14.1431  16.5668
14.219  14.5786
14.295  9.48605
14.3709  4.43983
14.4469  2.08691
14.5228  0.41331
14.5987  -0.308949
14.6747  -1.10448
14.7506  -0.2641
14.8266  -0.986685
14.9025  0.422859
14.9785  0.0283373
15.0544  -0.031916
15.1304  0.913265
15.2063  0.936737
15.2823  1.33131
15.3582  0.438984
15.4341  0.495066
15.5101  -0.285356
15.586  0.433889
15.662  -0.0835209
15.7379  0.037298
15.8139  1.16506
15.8898  1.94307
15.9658  2.88355
16.0417  4.07111
16.1176  7.23033
16.1936  9.56339
16.2695  13.6363
16.3455  17.0628
16.4214  20.8054
16.4974  26.3775
16.5733  34.7288
16.6493  51.8497
16.7252  60.1786
16.8011  52.738
16.8771  29.8514
16.953  12.8357
17.029  7.64705
17.1049  6.40081
17.1809  4.39603
17.2568  0.49586
17.3328  -1.01918
17.4087  -0.353052
17.4846  -0.303437
17.5606  -0.100534
17.6365  1.72966
17.7125  4.51214
17.7884  6.88724
17.8644  11.2897
17.9403  21.5721
18.0163  36.7121
18.0922  63.5286
18.1682  103.249
18.2441  132.989
18.32  106.071
18.396  62.826
18.4719  39.2288
18.5479  26.4105
18.6238  15.8424
18.6998  10.6829
18.7757  7.87043
18.8517  8.54282
18.9276  8.82229
19.0035  11.6127
19.0795  15.81
19.1554  21.3499
19.2314  27.2582
19.3073  29.7621
19.3833  23.8227
19.4592  14.4993
19.5352  6.62614
19.6111  1.80532
19.687  1.35402
19.763  5.49971
19.8389  17.3764
19.9149  38.6193
19.9908  49.1277
20.0668  40.8743
20.1427  32.3971
20.2187  29.5191
20.2946  29.0882
20.3706  26.5672
20.4465  22.9891
20.5224  18.4036
20.5984  16.9212
20.6743  14.7229
20.7503  14.0171
20.8262  13.2876
20.9022  13.473
20.9781  13.7658
21.0541  13.9614
21.13  14.4614
21.2059  14.2597
21.2819  12.609
21.3578  9.93417
21.4338  7.03268
21.5097  5.20817
21.5857  3.83198
21.6616  1.34384
21.7376  0.327136
21.8135  -0.582774
21.8894  -0.974967
21.9654  1.26746
22.0413  3.73309
22.1173  7.12083
22.1932  8.92592
22.2692  7.006
22.3451  3.68679
22.4211  1.7756
22.497  0.173003
22.5729  -0.255859
22.6489  0.342478
22.7248  0.246221
22.8008  0.479658
22.8767  0.0339612
22.9527  0.348074
23.0286  -0.0333136
23.1046  -0.0569269
23.1805  0.266679
23.2565  0.394023
23.3324  0.178055
23.4083  0.398352
23.4843  -0.100595
23.5602  0.234552
23.6362  -0.0550551
23.7121  0.48293
23.7881  -0.0585788
23.864  0.214969
23.94  0.519647
24.0159  0.096664
24.0918  0.0183814
24.1678  -0.0150813
24.2437  0.0498751

File: 15_ReMoB2_71p0GPa_620psi_P1_C4_D1w_108.dat
2.82731  0.306275
2.90325  1.83999
2.9792  0.669512
3.05514  0.180613
3.13109  1.95167
3.20703  0.992241
3.28298  1.32817
3.35892  2.9762
3.43487  5.88806
3.51081  29.1143
3.58676  36.9506
3.6627  5.32915
3.73864  1.90411
3.81459  0.869791
3.89053  0.97453
3.96648  1.65077
4.04242  1.8126
4.11837  0.389713
4.19431  0.75237
4.27026  1.99157
4.3462  1.59339
4.42215  -0.0631634
4.49809  0.607449
4.57404  0.535006
4.64998  0.529316
4.72593  0.00121361
4.80187  1.06636
4.87782  0.750222
4.95376  1.6936
5.02971  1.21004
5.10565  0.214323
5.1816  0.497112
5.25754  1.00919
5.33349  0.420669
5.40943  1.1685
5.48537  0.352353
5.56132  0.476011
5.63726  -0.172593
5.71321  0.99421
5.78915  1.35047
5.8651  1.32258
5.94104  0.433502
6.01699  2.73814
6.09293  1.66398
6.16888  0.0432037
6.24482  0.185065
6.32077  0.787133
6.39671  1.20468
6.47266  5.64292
6.5486  2.61268
6.62455  2.74032
6.70049  6.09339
6.77644  30.3616
6.85238  72.453
6.92833  51.7424
7.00427  78.5927
7.08021  232.446
7.15616  199.377
7.2321  63.6892
7.30805  19.0179
7.38399  8.44723
7.45994  4.02817
7.53588  1.60715
7.61183  1.12696
7.68777  0.0308801
7.76372  0.777873
7.83966  0.712724
7.91561  1.05043
7.99155  0.596157
8.0675  0.386184
8.14344  0.107683
8.21939  0.848251
8.29533  1.15086
8.37128  -0.126911
8.44722  1.04067
8.52317  1.19405
8.59911  0.821862
8.67506  -0.101447
8.751  -0.0880615
8.82694  -0.965932
8.90289  -0.862418
8.97883  1.63179
9.05478  5.40702
9.13072  10.5662
9.20667  25.6547
9.28261  138.026
9.35856  558.256
9.4345  803.519
9.51045  598.812
9.58639  634.528
9.66234  860.543
9.73828  869.153
9.81423  568.471
9.89017  307.563
9.96612  166.639
10.0421  95.0972
10.118  43.3614
10.194  15.2503
10.2699  1.9985
10.3458  -1.98181
10.4218  0.0777796
10.4977  -0.36003
10.5737  0.293349
10.6496  7.68469
10.7256  13.0446
10.8015  18.2085
10.8775  30.1146
10.9534  47.9163
11.0293  63.9824
11.1053  83.2308
11.1812  95.224
11.2572  90.3182
11.3331  77.7945
11.4091  63.4807
11.485  43.6649
11.561  25.3406
11.6369  14.2141
11.7128  10.8227
11.7888  9.7946
11.8647  3.47671
11.9407  -1.06488
12.0166  0.174043
12.0926  14.8494
12.1685  69.0328
12.2445  202.141
12.3204  398.984
12.3963  312.83
12.4723  141.16
12.5482  93.9345
12.6242  74.5875
12.7001  67.4712
12.7761  72.1074
12.852  83.6031
12.928  98.1289
13.0039  104.959
13.0799  104.619
13.1558  106.096
13.2317  105.844
13.3077  100.275
13.3836  84.2049
13.4596  64.611
13.5355  45.4435
13.6115  30.2691
13.6874  17.4756
13.7634  6.78037
13.8393  -1.53294
13.9152  -2.38535
13.9912  2.08543
14.0671  8.37583
14.1431  17.1601
14.219  23.5676
14.295  18.4015
14.3709  10.8866
14.4469  4.51715
14.5228  0.899904
14.5987  -0.583751
14.6747  -0.44988
14.7506  -0.125904
14.8266  -0.56192
14.9025  -0.705333
14.9785  0.401882
15.0544  0.020025
15.1304  1.39983
15.2063  3.31269
15.2823  3.11872
15.3582  1.99168
15.4341  0.603602
15.5101  0.157602
15.586  -0.181628
15.662  0.132169
15.7379  0.154974
15.8139  1.02311
15.8898  1.60654
15.9658  2.08304
16.0417  4.24665
16.1176  6.1178
16.1936  7.84412
16.2695  10.4215
16.3455  12.5771
16.4214  13.0296
16.4974  14.2309
16.5733  14.1942
16.6493  21.3907
16.7252  37.124
16.8011  65.1052
16.8771  74.0369
16.953  33.918
17.029  13.6693
17.1049  7.44775
17.1809  4.82487
17.2568  1.67771
17.3328  -0.386235
17.4087  -0.251097
17.4846  -0.794862
17.5606  0.224597
17.6365  0.72775
17.7125  2.70794
17.7884  4.69925
17.8644  6.71496
17.9403  8.28835
18.0163  16.1638
18.0922  31.9992
18.1682  58.9481
18.2441  92.0433
18.32  97.671
18.396  69.7827
18.4719  41.2137
18.5479  27.8621
18.6238  21.2356
18.6998  14.9462
18.7757  9.91272
18.8517  8.29633
18.9276  8.15441
19.0035  9.86784
19.0795  12.2448
19.1554  14.9749
19.2314  20.9522
19.3073  30.1851
19.3833  28.6275
19.4592  17.5124
19.5352  7.68555
19.6111  2.36359
19.687  0.404438
19.763  3.09592
19.8389  10.2606
19.9149  24.6025
19.9908  44.6003
20.0668  53.0948
20.1427  48.9438
20.2187  40.8469
20.2946  35.2273
20.3706  33.429
20.4465  32.4058
20.5224  31.2907
20.5984  27.0431
20.6743  20.9957
20.7503  16.4994
20.8262  13.8562
20.9022  12.5441
20.9781  11.9785
21.0541  10.3697
21.13  9.53382
21.2059  7.79376
21.2819  6.98822
21.3578  6.06518
21.4338  4.54483
21.5097  3.29111
21.5857  1.46363
21.6616  1.17137
21.7376  0.508676
21.8135  -0.0936799
21.8894  -0.876421
21.9654  0.0297129
22.0413  2.06269
22.1173  8.35557
22.1932  15.3892
22.2692  13.0625
22.3451  5.64818
22.4211  1.53163
22.497  0.420455
22.5729  -0.234719
22.6489  -0.208003
22.7248  0.354923
22.8008  0.269326
22.8767  0.47487
22.9527  0.0433886
23.0286  0.479927
23.1046  -0.223376
23.1805  0.0253161
23.2565  0.203781
23.3324  0.0557869
23.4083  0.0421532
23.4843  0.204835
23.5602  0.383229
23.6362  -0.141134
23.7121  0.55584
23.7881  0.330965
23.864  0.356376
23.94  0.428943
24.0159  -0.056369
24.0918  0.148228
24.1678  0.0572771
24.2437  0.102014