Folder: remob2/data/processed/Run1_XRD (part 4)

File: 16_ReMoB2_74p0GPa_645psi_P1_C4_D1w_114.dat
2.82731  0.248826
2.90325  0.498632
2.9792  0.337855
3.05514  1.75659
3.13109  0.814121
3.20703  1.138
3.28298  1.46541
3.35892  3.36203
3.43487  4.71381
3.51081  24.6149
3.58676  42.078
3.6627  7.96699
3.73864  1.96696
3.81459  1.70029
3.89053  1.30601
3.96648  1.38548
4.04242  1.01881
4.11837  1.11997
4.19431  0.400808
4.27026  0.259636
4.3462  0.128906
4.42215  0.486075
4.49809  -0.0572871
4.57404  1.41944
4.64998  0.702603
4.72593  0.740501
4.80187  0.344245
4.87782  0.643875
4.95376  0.969363
5.02971  1.05061
5.10565  1.02
5.1816  0.272217
5.25754  1.42251
5.33349  1.50846
5.40943  0.620715
5.48537  -0.112869
5.56132  0.853306
5.63726  1.3675
5.71321  0.055819
5.78915  0.603132
5.8651  1.6614
5.94104  0.302893
6.01699  1.60306
6.09293  0.152625
6.16888  0.499444
6.24482  -0.455006
6.32077  1.33684
6.39671  1.19446
6.47266  2.96143
6.5486  3.78889
6.62455  2.56644
6.70049  5.9559
6.77644  17.8887
6.85238  42.5354
6.92833  46.3935
7.00427  63.8595
7.08021  200.02
7.15616  238.767
7.2321  93.6383
7.30805  27.2041
7.38399  11.7521
7.45994  5.82449
7.53588  4.15227
7.61183  1.29079
7.68777  0.83947
7.76372  0.759418
7.83966  0.125814
7.91561  0.478944
7.99155  0.00182506
8.0675  0.403652
8.14344  -0.199033
8.21939  0.0930278
8.29533  0.196956
8.37128  0.439627
8.44722  0.897982
8.52317  0.886651
8.59911  0.146527
8.67506  -0.023483
8.751  -0.816965
8.82694  -0.958968
8.90289  -0.48909
8.97883  1.96208
9.05478  6.89651
9.13072  13.1019
9.20667  29.1104
9.28261  129.131
9.35856  542.094
9.4345  829.81
9.51045  655.173
9.58639  556.165
9.66234  793.433
9.73828  893.046
9.81423  614.391
9.89017  314.757
9.96612  164.482
10.0421  90.7761
10.118  41.1477
10.194  13.5874
10.2699  1.87318
10.3458  -0.503155
10.4218  -1.83164
10.4977  -1.77891
10.5737  -1.11298
10.6496  4.78983
10.7256  9.85892
10.8015  10.7578
10.8775  14.8296
10.9534  22.7715
11.0293  34.0053
11.1053  49.039
11.1812  61.3008
11.2572  61.4462
11.3331  52.5686
11.4091  39.8919
11.485  27.3275
11.561  19.382
11.6369  10.4406
11.7128  5.63971
11.7888  3.47111
11.8647  2.128
11.9407  0.496303
12.0166  4.44503
12.0926  26.6938
12.1685  113.718
12.2445  321.142
12.3204  518.454
12.3963  419.439
12.4723  218.647
12.5482  97.0153
12.6242  59.761
12.7001  46.2151
12.7761  42.668
12.852  44.5033
12.928  50.6932
13.0039  54.7976
13.0799  55.1091
13.1558  56.3312
13.2317  59.9594
13.3077  62.2312
13.3836  56.6626
13.4596  40.6253
13.5355  25.3453
13.6115  13.2353
13.6874  6.78699
13.7634  0.982438
13.8393  -2.07517
13.9152  -2.08424
13.9912  0.314286
14.0671  6.17574
14.1431  13.8507
14.219  21.2778
14.295  21.7932
14.3709  17.6866
14.4469  9.42639
14.5228  3.87948
14.5987  1.68211
14.6747  -0.391098
14.7506  0.272786
14.8266  -0.705061
14.9025  -0.925884
14.9785  -0.282286
15.0544  0.396777
15.1304  -0.144288
15.2063  1.36343
15.2823  0.821693
15.3582  1.30275
15.4341  0.381108
15.5101  0.0935863
15.586  0.0754964
15.662  0.0396345
15.7379  0.798553
15.8139  0.335734
15.8898  0.915183
15.9658  2.77209
16.0417  4.20941
16.1176  7.14819
16.1936  10.3438
16.2695  13.2172
16.3455  15.9183
16.4214  16.4963
16.4974  16.4888
16.5733  14.5411
16.6493  15.026
16.7252  22.0879
16.8011  36.7207
16.8771  48.3366
16.953  31.993
17.029  13.2243
17.1049  7.08145
17.1809  4.82084
17.2568  2.96461
17.3328  0.929028
17.4087  -0.737235
17.4846  -0.951075
17.5606  -0.0731936
17.6365  0.140024
17.7125  0.982827
17.7884  3.75435
17.8644  6.66669
17.9403  8.71031
18.0163  16.8471
18.0922  32.4137
18.1682  53.5114
18.2441  82.0649
18.32  111.388
18.396  99.1516
18.4719  62.0159
18.5479  40.7035
18.6238  31.6447
18.6998  25.7963
18.7757  14.7606
18.8517  9.47023
18.9276  7.73017
19.0035  8.81254
19.0795  10.0051
19.1554  10.8162
19.2314  12.0908
19.3073  14.8176
19.3833  18.337
19.4592  16.2463
19.5352  8.45949
19.6111  3.20987
19.687  0.592331
19.763  1.43553
19.8389  5.71582
19.9149  13.6569
19.9908  28.1015
20.0668  39.8558
20.1427  43.7481
20.2187  37.6862
20.2946  31.333
20.3706  29.5684
20.4465  28.5326
20.5224  29.0559
20.5984  29.0094
20.6743  26.2188
20.7503  22.3699
20.8262  19.4159
20.9022  17.4329
20.9781  14.6046
21.0541  11.3781
21.13  9.80276
21.2059  8.008
21.2819  5.59752
21.3578  4.34992
21.4338  2.91675
21.5097  1.57729
21.5857  0.965863
21.6616  0.59868
21.7376  0.585347
21.8135  0.125232
21.8894  -1.134
21.9654  -0.50624
22.0413  1.26775
22.1173  4.87745
22.1932  13.3209
22.2692  16.2562
22.3451  8.76443
22.4211  2.81753
22.497  1.63013
22.5729  1.27923
22.6489  -0.050814
22.7248  -0.127881
22.8008  0.887011
22.8767  0.594628
22.9527  0.292836
23.0286  -0.051869
23.1046  0.0763551
23.1805  0.205484
23.2565  0.0252557
23.3324  0.15224
23.4083  0.591361
23.4843  0.205561
23.5602  0.384731
23.6362  0.0941254
23.7121  0.163354
23.7881  0.162171
23.864  0.0147682
23.94  0.320813
24.0159  0.0562252
24.0918  -0.22635
24.1678  0.201071
24.2437  0.247863

File: 17_ReMoB2_78p0GPa_670psi_P1_C4_D1w_120.dat
2.82731  0.255493
2.90325  0.535867
2.9792  2.08097
3.05514  0.165671
3.13109  2.46309
3.20703  1.18455
3.28298  0.685888
3.35892  2.13602
3.43487  5.61587
3.51081  18.3662
3.58676  38.7735
3.6627  8.45961
3.73864  2.0387
3.81459  1.21748
3.89053  1.303
3.96648  0.404348
4.04242  0.882974
4.11837  0.563339
4.19431  0.99712
4.27026  0.856638
4.3462  0.51498
4.42215  1.1635
4.49809  -0.199659
4.57404  0.399583
4.64998  0.416508
4.72593  0.819704
4.80187  0.520944
4.87782  0.807041
4.95376  0.419715
5.02971  0.113697
5.10565  0.393222
5.1816  0.227156
5.25754  0.766248
5.33349  1.5449
5.40943  0.298939
5.48537  0.739233
5.56132  0.517123
5.63726  0.372469
5.71321  1.27962
5.78915  1.41345
5.8651  1.75672
5.94104  1.15936
6.01699  2.18282
6.09293  2.22786
6.16888  -0.459594
6.24482  0.170693
6.32077  1.11679
6.39671  1.70094
6.47266  6.14254
6.5486  5.97011
6.62455  2.22347
6.70049  3.45141
6.77644  11.3162
6.85238  37.4744
6.92833  49.6266
7.00427  51.7816
7.08021  143.046
7.15616  208.64
7.2321  107.237
7.30805  30.7483
7.38399  11.8566
7.45994  6.51077
7.53588  3.40669
7.61183  1.00715
7.68777  1.30578
7.76372  0.75904
7.83966  -0.369164
7.91561  -0.11665
7.99155  0.9472
8.0675  1.50251
8.14344  1.17519
8.21939  0.406618
8.29533  0.0157592
8.37128  1.01504
8.44722  0.629049
8.52317  0.555592
8.59911  0.892758
8.67506  0.162498
8.751  -0.676199
8.82694  -1.40317
8.90289  -0.67785
8.97883  1.90083
9.05478  5.69721
9.13072  9.25311
9.20667  20.1693
9.28261  89.971
9.35856  531.283
9.4345  1071.49
9.51045  835.082
9.58639  538.308
9.66234  652.184
9.73828  769.045
9.81423  605.802
9.89017  351.599
9.96612  189.525
10.0421  114.751
10.118  62.114
10.194  25.2257
10.2699  6.28644
10.3458  -1.27239
10.4218  -2.89679
10.4977  -0.395526
10.5737  1.13843
10.6496  3.44097
10.7256  8.48387
10.8015  10.1759
10.8775  15.1162
10.9534  23.067
11.0293  34.562
11.1053  48.7847
11.1812  60.2528
11.2572  59.1824
11.3331  49.3537
11.4091  34.8567
11.485  19.7246
11.561  9.74193
11.6369  2.94577
11.7128  0.802645
11.7888  0.989503
11.8647  1.61506
11.9407  -0.530197
12.0166  4.1567
12.0926  21.4847
12.1685  100.974
12.2445  277.994
12.3204  447.918
12.3963  432.452
12.4723  255.139
12.5482  128.243
12.6242  80.5755
12.7001  58.3119
12.7761  50.3005
12.852  49.4573
12.928  54.1902
13.0039  61.2827
13.0799  61.9249
13.1558  60.6523
13.2317  61.1039
13.3077  59.527
13.3836  52.1251
13.4596  39.8285
13.5355  25.0652
13.6115  14.2574
13.6874  6.65115
13.7634  0.529692
13.8393  -1.5955
13.9152  -2.46638
13.9912  1.9179
14.0671  6.92369
14.1431  12.7499
14.219  18.4197
14.295  19.8018
14.3709  14.6057
14.4469  8.96983
14.5228  3.30396
14.5987  1.02987
14.6747  -0.12409
14.7506  -0.897471
14.8266  -0.718523
14.9025  -0.217531
14.9785  -0.326684
15.0544  0.592747
15.1304  -0.24004
15.2063  2.12841
15.2823  2.96319
15.3582  2.93012
15.4341  1.81672
15.5101  0.815102
15.586  0.823113
15.662  -0.0068915
15.7379  -0.135374
15.8139  0.379625
15.8898  0.0882534
15.9658  1.84282
16.0417  2.89444
16.1176  3.95639
16.1936  6.70267
16.2695  10.5639
16.3455  14.0696
16.4214  15.9654
16.4974  16.5583
16.5733  16.2503
16.6493  16.7048
16.7252  24.1267
16.8011  40.3194
16.8771  60.58
16.953  56.564
17.029  26.7372
17.1049  11.4969
17.1809  5.76096
17.2568  2.39001
17.3328  0.465209
17.4087  0.0810408
17.4846  -0.714892
17.5606  -0.797421
17.6365  -0.582735
17.7125  0.850347
17.7884  2.06336
17.8644  4.79954
17.9403  6.64796
18.0163  11.6419
18.0922  23.4274
18.1682  43.2408
18.2441  65.8285
18.32  101.854
18.396  118.091
18.4719  87.7769
18.5479  54.9586
18.6238  40.8065
18.6998  31.1093
18.7757  18.9775
18.8517  10.6764
18.9276  7.67091
19.0035  7.13137
19.0795  8.1102
19.1554  9.22039
19.2314  10.3699
19.3073  13.0625
19.3833  15.8098
19.4592  15.4562
19.5352  10.7244
19.6111  4.46512
19.687  1.59221
19.763  0.721359
19.8389  2.20711
19.9149  7.03745
19.9908  19.3887
20.0668  33.5404
20.1427  37.3408
20.2187  34.6988
20.2946  29.7697
20.3706  28.0182
20.4465  27.7654
20.5224  27.888
20.5984  28.0589
20.6743  26.1676
20.7503  23.209
20.8262  21.0094
20.9022  17.8529
20.9781  14.9005
21.0541  13.0372
21.13  10.8075
21.2059  8.50209
21.2819  6.25787
21.3578  3.62374
21.4338  2.31044
21.5097  1.38666
21.5857  1.01095
21.6616  0.53036
21.7376  0.597131
21.8135  0.702731
21.8894  -0.597333
21.9654  -0.208918
22.0413  -0.21547
22.1173  0.532934
22.1932  2.91844
22.2692  7.39423
22.3451  6.49067
22.4211  2.79597
22.497  0.705173
22.5729  0.626939
22.6489  0.387956
22.7248  -0.119491
22.8008  0.752196
22.8767  0.685213
22.9527  0.0287482
23.0286  0.385798
23.1046  0.416911
23.1805  0.0717964
23.2565  -0.0326095
23.3324  0.0522369
23.4083  0.410178
23.4843  0.770002
23.5602  0.0518498
23.6362  0.38985
23.7121  0.106533
23.7881  0.307024
23.864  0.376752
23.94  0.330958
24.0159  -0.320403
24.0918  0.310576
24.1678  0.120247
24.2437  0.233047

File: 18_ReMoB2_60p0GPa_300psi_release_P1_C4_D1w_126.dat
2.82731  0.0633597
2.90325  0.709676
2.9792  1.81232
3.05514  0.699192
3.13109  1.42807
3.20703  0.643458
3.28298  1.70372
3.35892  4.01218
3.43487  8.42478
3.51081  23.9594
3.58676  17.1695
3.6627  4.02036
3.73864  2.03299
3.81459  1.89506
3.89053  1.18771
3.96648  1.66879
4.04242  0.693494
4.11837  0.205959
4.19431  1.165
4.27026  0.34734
4.3462  0.275733
4.42215  0.0796683
4.49809  0.329764
4.57404  0.734854
4.64998  -0.104491
4.72593  2.0925
4.80187  1.07888
4.87782  0.321847
4.95376  1.03403
5.02971  0.962574
5.10565  1.28366
5.1816  0.451212
5.25754  1.12233
5.33349  0.669503
5.40943  0.162467
5.48537  0.403191
5.56132  -0.157809
5.63726  0.702872
5.71321  0.304578
5.78915  1.61592
5.8651  0.187226
5.94104  0.857143
6.01699  2.66482
6.09293  0.839363
6.16888  0.51828
6.24482  0.424169
6.32077  1.51967
6.39671  9.7224
6.47266  12.7509
6.5486  2.84367
6.62455  2.27681
6.70049  5.12426
6.77644  14.2529
6.85238  22.8274
6.92833  37.5615
7.00427  100.069
7.08021  156.889
7.15616  93.4803
7.2321  35.9748
7.30805  12.3096
7.38399  6.33057
7.45994  3.86647
7.53588  1.45557
7.61183  0.554457
7.68777  0.70223
7.76372  -0.0663643
7.83966  -0.355015
7.91561  1.38925
7.99155  0.66739
8.0675  0.807485
8.14344  -0.0752185
8.21939  0.370626
8.29533  1.03618
8.37128  0.773199
8.44722  0.41393
8.52317  0.628994
8.59911  -0.287098
8.67506  -0.0301698
8.751  -0.674897
8.82694  -0.519398
8.90289  2.71485
8.97883  7.33598
9.05478  19.0485
9.13072  52.9527
9.20667  214.384
9.28261  809.833
9.35856  826.169
9.4345  479.515
9.51045  456.63
9.58639  598.878
9.66234  580.981
9.73828  432.292
9.81423  260.298
9.89017  149.618
9.96612  79.1064
10.0421  35.3415
10.118  11.7965
10.194  3.1325
10.2699  -2.14462
10.3458  -2.73025
10.4218  0.698104
10.4977  1.97165
10.5737  3.92104
10.6496  9.10249
10.7256  11.4597
10.8015  17.3296
10.8775  24.3974
10.9534  32.2569
11.0293  42.1997
11.1053  48.4678
11.1812  42.9223
11.2572  30.0904
11.3331  17.4867
11.4091  4.82376
11.485  -1.66259
11.561  0.658419
11.6369  4.69388
11.7128  6.8707
11.7888  17.4012
11.8647  41.0239
11.9407  106.788
12.0166  358.783
12.0926  794.593
12.1685  568.196
12.2445  346.485
12.3204  244.155
12.3963  125.007
12.4723  58.9973
12.5482  39.1922
12.6242  31.7525
12.7001  29.4157
12.7761  27.4826
12.852  27.6661
12.928  29.7412
13.0039  29.4499
13.0799  28.897
13.1558  28.2173
13.2317  28.4428
13.3077  25.2016
13.3836  17.8333
13.4596  10.5299
13.5355  4.16461
13.6115  0.0247205
13.6874  -1.9633
13.7634  -2.30764
13.8393  0.59703
13.9152  4.91659
13.9912  9.07932
14.0671  13.2058
14.1431  15.4201
14.219  13.195
14.295  7.92174
14.3709  3.89283
14.4469  1.89491
14.5228  -0.0486519
14.5987  -0.0762724
14.6747  -0.511314
14.7506  -0.127346
14.8266  -0.736952
14.9025  0.0105658
14.9785  0.0186088
15.0544  0.654091
15.1304  0.862031
15.2063  1.40934
15.2823  0.39145
15.3582  0.460104
15.4341  -0.157329
15.5101  0.232374
15.586  0.654088
15.662  0.57012
15.7379  0.674068
15.8139  2.14872
15.8898  3.32503
15.9658  8.47902
16.0417  15.7129
16.1176  26.1709
16.1936  37.0766
16.2695  39.4536
16.3455  33.9528
16.4214  26.7581
16.4974  23.9735
16.5733  31.4502
16.6493  40.4326
16.7252  42.2143
16.8011  27.5331
16.8771  12.3213
16.953  6.10236
17.029  4.04627
17.1049  2.2872
17.1809  0.537279
17.2568  -0.573992
17.3328  -1.43053
17.4087  -1.144
17.4846  -0.0370493
17.5606  1.05741
17.6365  3.4973
17.7125  9.18686
17.7884  23.9021
17.8644  53.9758
17.9403  75.7562
18.0163  88.733
18.0922  109.637
18.1682  129.788
18.2441  109.19
18.32  72.9828
18.396  52.0655
18.4719  40.7179
18.5479  28.5763
18.6238  18.2149
18.6998  11.975
18.7757  9.94853
18.8517  8.43707
18.9276  7.69022
19.0035  8.87941
19.0795  11.209
19.1554  11.8238
19.2314  11.8068
19.3073  8.68867
19.3833  5.26341
19.4592  1.74726
19.5352  0.0699344
19.6111  -0.276738
19.687  2.70786
19.763  9.84906
19.8389  19.4932
19.9149  27.4158
19.9908  27.7302
20.0668  31.2739
20.1427  38.3864
20.2187  40.6714
20.2946  35.7616
20.3706  32.4886
20.4465  28.744
20.5224  24.5434
20.5984  21.2666
20.6743  17.4668
20.7503  15.0133
20.8262  13.3325
20.9022  12.6356
20.9781  11.6443
21.0541  11.5858
21.13  10.9819
21.2059  9.17143
21.2819  7.34691
21.3578  5.01601
21.4338  2.58318
21.5097  1.06719
21.5857  0.295331
21.6616  -0.0679965
21.7376  -0.461897
21.8135  -0.436067
21.8894  -0.421669
21.9654  0.347195
22.0413  1.38639
22.1173  1.7138
22.1932  1.38721
22.2692  1.70051
22.3451  3.11555
22.4211  2.90708
22.497  3.06536
22.5729  2.63992
22.6489  1.73129
22.7248  1.18755
22.8008  1.28048
22.8767  1.29293
22.9527  0.323018
23.0286  -0.342304
23.1046  -0.0145783
23.1805  -0.0689345
23.2565  0.0446876
23.3324  0.0325046
23.4083  0.0639966
23.4843  0.204252
23.5602  0.245498
23.6362  0.393622
23.7121  -0.096994
23.7881  0.5418
23.864  0.799077
23.94  0.234829
24.0159  -0.237429
24.0918  0.0505972
24.1678  -0.0336225
24.2437  0.115572

File: 19_ReMoB2_50p0GPa_200psi_release_P1_C4_D1w_132.dat
2.82731  0.45527
2.90325  0.563688
2.9792  0.698865
3.05514  0.49862
3.13109  1.37934
3.20703  0.920029
3.28298  1.62645
3.35892  4.29146
3.43487  12.3183
3.51081  36.3762
3.58676  14.4627
3.6627  3.54721
3.73864  2.43953
3.81459  1.47785
3.89053  1.51502
3.96648  1.62737
4.04242  0.00127613
4.11837  0.475955
4.19431  0.0895119
4.27026  1.0085
4.3462  0.464612
4.42215  0.389368
4.49809  0.0225955
4.57404  0.407598
4.64998  0.826481
4.72593  1.43096
4.80187  1.02306
4.87782  1.41031
4.95376  0.643281
5.02971  -0.113446
5.10565  0.772398
5.1816  0.267904
5.25754  0.673994
5.33349  0.236061
5.40943  1.34089
5.48537  0.316719
5.56132  -0.163866
5.63726  0.789519
5.71321  0.776569
5.78915  1.19402
5.8651  0.515218
5.94104  2.33369
6.01699  4.87664
6.09293  1.51141
6.16888  0.965387
6.24482  -0.0926178
6.32077  1.1207
6.39671  3.6801
6.47266  5.61994
6.5486  2.16608
6.62455  5.84742
6.70049  26.5848
6.77644  51.0515
6.85238  42.6386
6.92833  65.3666
7.00427  192.13
7.08021  202.787
7.15616  76.1927
7.2321  27.5293
7.30805  11.2015
7.38399  5.25246
7.45994  2.70645
7.53588  1.22972
7.61183  0.382461
7.68777  0.0642952
7.76372  0.405874
7.83966  0.28121
7.91561  0.0252836
7.99155  0.552238
8.0675  0.303034
8.14344  -0.135196
8.21939  0.00261118
8.29533  0.61137
8.37128  0.801468
8.44722  0.775723
8.52317  0.326844
8.59911  0.820414
8.67506  0.21297
8.751  -0.665736
8.82694  0.130581
8.90289  1.27484
8.97883  4.62156
9.05478  19.0532
9.13072  82.3744
9.20667  510.928
9.28261  1053.04
9.35856  787.468
9.4345  484.88
9.51045  565.937
9.58639  705.83
9.66234  516.214
9.73828  324.766
9.81423  216.616
9.89017  139.404
9.96612  65.3562
10.0421  21.4296
10.118  5.43967
10.194  -1.13117
10.2699  -2.39525
10.3458  -0.437477
10.4218  -1.00218
10.4977  3.501
10.5737  13.4777
10.6496  19.4537
10.7256  22.4388
10.8015  30.1452
10.8775  37.8456
10.9534  49.3402
11.0293  59.2575
11.1053  65.3347
11.1812  54.0054
11.2572  36.5782
11.3331  20.1732
11.4091  8.02309
11.485  -0.842372
11.561  -0.141177
11.6369  8.37879
11.7128  14.0196
11.7888  27.2098
11.8647  63.7122
11.9407  175.818
12.0166  479.688
12.0926  770.69
12.1685  653.257
12.2445  369.3
12.3204  158.983
12.3963  83.0648
12.4723  55.8836
12.5482  42.1393
12.6242  41.773
12.7001  42.749
12.7761  45.843
12.852  47.4647
12.928  44.7484
13.0039  42.7882
13.0799  44.1538
13.1558  47.2626
13.2317  43.4357
13.3077  33.1501
13.3836  20.7657
13.4596  13.2413
13.5355  6.80262
13.6115  0.607708
13.6874  -2.42817
13.7634  -2.82306
13.8393  -0.819304
13.9152  4.73755
13.9912  13.7261
14.0671  22.7558
14.1431  23.3425
14.219  13.6252
14.295  6.65686
14.3709  2.84524
14.4469  0.628853
14.5228  -0.238528
14.5987  -0.781445
14.6747  -0.770079
14.7506  -0.308304
14.8266  -0.121738
14.9025  0.0925419
14.9785  -0.0844642
15.0544  0.891084
15.1304  1.02546
15.2063  1.55102
15.2823  0.023081
15.3582  0.338879
15.4341  0.714303
15.5101  0.0642193
15.586  1.25415
15.662  0.762425
15.7379  1.85941
15.8139  2.72739
15.8898  5.41929
15.9658  8.41672
16.0417  13.1226
16.1176  15.8821
16.1936  18.0348
16.2695  18.2393
16.3455  18.208
16.4214  21.774
16.4974  34.6297
16.5733  57.812
16.6493  60.4839
16.7252  39.7556
16.8011  24.1385
16.8771  12.822
16.953  6.32717
17.029  1.86021
17.1049  0.857335
17.1809  -0.740957
17.2568  -0.2439
17.3328  -0.911602
17.4087  -0.473767
17.4846  1.31622
17.5606  4.49044
17.6365  11.6206
17.7125  28.6274
17.7884  63.1474
17.8644  109.483
17.9403  124.726
18.0163  123.141
18.0922  131.472
18.1682  103.886
18.2441  63.9043
18.32  43.0543
18.396  30.6443
18.4719  20.0552
18.5479  13.4399
18.6238  8.55064
18.6998  7.11158
18.7757  7.02664
18.8517  9.00368
18.9276  15.3145
19.0035  25.9343
19.0795  32.4578
19.1554  24.3892
19.2314  13.1135
19.3073  5.84168
19.3833  1.74609
19.4592  0.112697
19.5352  0.517297
19.6111  5.67594
19.687  18.5465
19.763  32.0198
19.8389  35.2086
19.9149  33.2886
19.9908  37.4792
20.0668  46.2544
20.1427  45.1871
20.2187  39.2126
20.2946  31.9789
20.3706  25.263
20.4465  19.6629
20.5224  15.1931
20.5984  12.4323
20.6743  10.8454
20.7503  10.3011
20.8262  9.52989
20.9022  10.4771
20.9781  10.2182
21.0541  9.83121
21.13  9.07547
21.2059  7.95118
21.2819  6.6346
21.3578  4.99434
21.4338  2.95948
21.5097  1.42739
21.5857  -0.194443
21.6616  -0.627982
21.7376  -0.676526
21.8135  0.0718439
21.8894  1.61799
21.9654  2.42369
22.0413  1.30203
22.1173  0.0795069
22.1932  2.57288
22.2692  6.31914
22.3451  3.40644
22.4211  4.4945
22.497  5.17644
22.5729  4.20326
22.6489  2.58586
22.7248  1.31181
22.8008  0.276708
22.8767  0.229998
22.9527  -0.0708695
23.0286  -0.112974
23.1046  0.353164
23.1805  0.678606
23.2565  0.130924
23.3324  0.146791
23.4083  0.417546
23.4843  0.283412
23.5602  0.0838959
23.6362  0.375089
23.7121  0.351563
23.7881  0.347328
23.864  0.255343
23.94  0.647975
24.0159  0.0823573
24.0918  -0.128725
24.1678  0.260265
24.2437  0.188208

File: 20_ReMoB2_40p0GPa_100psi_release_P1_C4_D1w_138.dat
2.82731  0.173521
2.90325  1.33242
2.9792  2.66266
3.05514  1.73148
3.13109  1.62035
3.20703  1.54888
3.28298  2.67391
3.35892  5.12179
3.43487  13.7505
3.51081  24.8138
3.58676  8.30758
3.6627  3.49696
3.73864  2.06122
3.81459  2.26016
3.89053  0.83526
3.96648  1.48797
4.04242  1.42754
4.11837  0.679239
4.19431  1.32244
4.27026  0.851864
4.3462  0.319362
4.42215  0.0615957
4.49809  0.976662
4.57404  0.729664
4.64998  0.154408
4.72593  0.960009
4.80187  0.373529
4.87782  0.683675
4.95376  0.119616
5.02971  1.30602
5.10565  0.184878
5.1816  0.0258968
5.25754  0.261814
5.33349  1.11235
5.40943  0.925541
5.48537  0.237862
5.56132  0.141203
5.63726  1.44073
5.71321  1.57309
5.78915  1.54228
5.8651  0.564245
5.94104  1.65826
6.01699  0.948941
6.09293  0.592369
6.16888  0.399092
6.24482  1.29496
6.32077  2.65544
6.39671  4.84405
6.47266  4.02617
6.5486  3.98204
6.62455  12.4048
6.70049  29.6299
6.77644  32.5581
6.85238  35.8102
6.92833  91.9875
7.00427  151.638
7.08021  88.0302
7.15616  33.3816
7.2321  11.9447
7.30805  4.565
7.38399  1.84781
7.45994  1.47519
7.53588  0.170044
7.61183  0.592628
7.68777  0.206166
7.76372  0.739799
7.83966  0.0992832
7.91561  0.680146
7.99155  0.477166
8.0675  0.0972823
8.14344  0.177346
8.21939  -0.181859
8.29533  -0.427227
8.37128  -0.595365
8.44722  -0.677458
8.52317  -0.119435
8.59911  0.369286
8.67506  2.14633
8.751  4.36712
8.82694  8.536
8.90289  16.6641
8.97883  32.1283
9.05478  80.9176
9.13072  280.433
9.20667  578.368
9.28261  496.924
9.35856  436.104
9.4345  631.358
9.51045  740.036
9.58639  581.039
9.66234  340.714
9.73828  196.699
9.81423  127.139
9.89017  64.6392
9.96612  22.0047
10.0421  3.62095
10.118  -0.994148
10.194  -2.5671
10.2699  -0.800362
10.3458  -0.341044
10.4218  0.467546
10.4977  5.79447
10.5737  8.63361
10.6496  14.3057
10.7256  22.3079
10.8015  32.9935
10.8775  43.0835
10.9534  53.1134
11.0293  56.9319
11.1053  47.8609
11.1812  33.6768
11.2572  20.1271
11.3331  7.19541
11.4091  0.272686
11.485  -1.37122
11.561  12.0288
11.6369  35.1514
11.7128  67.3633
11.7888  136.903
11.8647  272.443
11.9407  402.487
12.0166  375.446
12.0926  264.501
12.1685  166.916
12.2445  97.9002
12.3204  61.0031
12.3963  39.4545
12.4723  28.4742
12.5482  25.1959
12.6242  27.3527
12.7001  32.8055
12.7761  36.8906
12.852  37.6863
12.928  39.524
13.0039  42.6993
13.0799  42.7987
13.1558  38.2048
13.2317  30.4446
13.3077  20.9207
13.3836  11.1228
13.4596  4.41205
13.5355  0.103818
13.6115  -2.70333
13.6874  -1.18404
13.7634  1.62511
13.8393  6.58536
13.9152  11.6439
13.9912  15.5509
14.0671  13.7348
14.1431  9.5705
14.219  4.46776
14.295  1.80076
14.3709  0.0678133
14.4469  -0.501016
14.5228  -0.378225
14.5987  -0.982221
14.6747  -0.0569324
14.7506  -0.0025378
14.8266  0.310555
14.9025  0.532546
14.9785  1.22459
15.0544  1.93696
15.1304  -0.00221804
15.2063  1.09794
15.2823  0.792388
15.3582  0.501433
15.4341  0.633523
15.5101  0.371129
15.586  1.27445
15.662  2.39626
15.7379  4.83245
15.8139  8.62152
15.8898  12.801
15.9658  16.9457
16.0417  19.0472
16.1176  18.1865
16.1936  17.0445
16.2695  22.5693
16.3455  44.0024
16.4214  74.4573
16.4974  68.2177
16.5733  41.2343
16.6493  20.6831
16.7252  9.77182
16.8011  5.49651
16.8771  3.07231
16.953  1.38384
17.029  -0.180602
17.1049  -1.01873
17.1809  -0.959059
17.2568  -0.218421
17.3328  0.958249
17.4087  3.45808
17.4846  10.8977
17.5606  23.8417
17.6365  45.3611
17.7125  68.9678
17.7884  87.2926
17.8644  106.571
17.9403  114.677
18.0163  97.6609
18.0922  65.5887
18.1682  46.2396
18.2441  39.8728
18.32  27.6737
18.396  13.7233
18.4719  7.14918
18.5479  4.81839
18.6238  4.63712
18.6998  7.31162
18.7757  12.435
18.8517  16.6478
18.9276  18.1504
19.0035  16.8471
19.0795  10.9282
19.1554  4.46557
19.2314  1.05911
19.3073  0.829361
19.3833  1.90872
19.4592  6.14143
19.5352  16.9417
19.6111  29.894
19.687  35.9279
19.763  33.3926
19.8389  30.952
19.9149  31.6148
19.9908  29.8602
20.0668  25.3088
20.1427  22.4845
20.2187  19.3873
20.2946  15.5836
20.3706  13.3336
20.4465  11.2414
20.5224  10.2913
20.5984  10.1678
20.6743  10.6631
20.7503  11.4511
20.8262  12.4216
20.9022  14.1557
20.9781  14.9664
21.0541  14.3453
21.13  12.1146
21.2059  9.54926
21.2819  5.60805
21.3578  2.42464
21.4338  0.988538
21.5097  -0.676997
21.5857  -0.703525
21.6616  0.0510964
21.7376  1.72089
21.8135  2.03082
21.8894  0.694587
21.9654  1.30457
22.0413  3.2998
22.1173  4.74913
22.1932  3.86502
22.2692  2.35232
22.3451  2.26315
22.4211  0.829032
22.497  0.434151
22.5729  0.393738
22.6489  0.278203
22.7248  -0.0661439
22.8008  -0.1884
22.8767  0.0653812
22.9527  -0.0135255
23.0286  0.0948996
23.1046  0.111663
23.1805  0.561664
23.2565  0.168347
23.3324  -0.0470297
23.4083  0.131283
23.4843  -0.0601767
23.5602  0.0647958
23.6362  0.0108542
23.7121  0.127804
23.7881  -0.000625492
23.864  0.0668634
23.94  0.269701
24.0159  -0.0104248
24.0918  0.161365
24.1678  -0.218508
24.2437  -0.148769