Folder: remob2/data/processed/Run1_XRD (part 2)

File: 6_ReMoB2_28pGPa_355psi_P1_C4_D1w_053.dat
2.82731  0.358805
2.90325  0.81651
2.9792  1.09257
3.05514  0.415772
3.13109  1.4154
3.20703  1.34936
3.28298  1.57701
3.35892  3.83798
3.43487  18.5782
3.51081  15.0915
3.58676  10.0999
3.6627  0.656664
3.73864  0.659715
3.81459  0.52882
3.89053  1.20091
3.96648  0.785686
4.04242  0.962473
4.11837  1.2648
4.19431  0.455575
4.27026  0.947878
4.3462  0.639281
4.42215  0.556516
4.49809  0.0288015
4.57404  0.235822
4.64998  -0.154176
4.72593  0.79792
4.80187  1.3846
4.87782  0.845861
4.95376  0.417082
5.02971  0.0190541
5.10565  1.08833
5.1816  0.383228
5.25754  0.847759
5.33349  0.729373
5.40943  0.105826
5.48537  0.335695
5.56132  0.818039
5.63726  -0.0657913
5.71321  0.765593
5.78915  0.395894
5.8651  1.09341
5.94104  1.12397
6.01699  0.0887722
6.09293  0.0458632
6.16888  0.841861
6.24482  0.545549
6.32077  0.200153
6.39671  0.467691
6.47266  2.16118
6.5486  16.3036
6.62455  30.5864
6.70049  11.7483
6.77644  13.1434
6.85238  70.9302
6.92833  125.427
7.00427  46.3282
7.08021  13.1642
7.15616  4.14368
7.2321  0.823931
7.30805  0.493438
7.38399  0.858018
7.45994  0.709338
7.53588  0.158763
7.61183  1.26513
7.68777  1.24947
7.76372  0.384381
7.83966  -0.32176
7.91561  1.07745
7.99155  0.131637
8.0675  0.163718
8.14344  0.607847
8.21939  0.379705
8.29533  0.663517
8.37128  0.259488
8.44722  0.532448
8.52317  0.723625
8.59911  0.73631
8.67506  0.915313
8.751  0.123201
8.82694  -0.524075
8.90289  -0.260672
8.97883  -0.180816
9.05478  2.41599
9.13072  10.9648
9.20667  47.4221
9.28261  232.341
9.35856  620.305
9.4345  883.281
9.51045  1080.13
9.58639  667.506
9.66234  229.854
9.73828  78.2821
9.81423  21.798
9.89017  4.75401
9.96612  2.82876
10.0421  4.24322
10.118  7.63007
10.194  14.5679
10.2699  19.605
10.3458  16.2359
10.4218  32.6457
10.4977  48.3215
10.5737  43.8759
10.6496  35.4524
10.7256  42.0024
10.8015  47.471
10.8775  39.5958
10.9534  28.5972
11.0293  18.0111
11.1053  9.74189
11.1812  3.43411
11.2572  0.212748
11.3331  0.0992687
11.4091  1.60731
11.485  1.92763
11.561  -1.13085
11.6369  -0.646412
11.7128  0.763585
11.7888  2.75071
11.8647  3.90456
11.9407  4.7562
12.0166  3.58986
12.0926  3.84222
12.1685  5.04163
12.2445  13.036
12.3204  36.2115
12.3963  264.715
12.4723  306.914
12.5482  142.563
12.6242  87.2825
12.7001  73.3435
12.7761  67.9812
12.852  58.0409
12.928  42.9825
13.0039  34.7867
13.0799  30.6559
13.1558  32.6841
13.2317  68.3844
13.3077  277.541
13.3836  154.603
13.4596  27.3143
13.5355  3.90326
13.6115  1.03699
13.6874  2.04786
13.7634  7.59056
13.8393  12.1446
13.9152  11.7502
13.9912  7.299
14.0671  3.0353
14.1431  0.294742
14.219  -0.498788
14.295  -0.774592
14.3709  0.495653
14.4469  0.0926024
14.5228  0.637476
14.5987  0.524465
14.6747  0.383498
14.7506  0.0440951
14.8266  0.304404
14.9025  -0.154206
14.9785  0.706085
15.0544  0.183306
15.1304  -0.345842
15.2063  0.649218
15.2823  0.900324
15.3582  4.46218
15.4341  7.47978
15.5101  9.98596
15.586  9.20303
15.662  7.19787
15.7379  8.51147
15.8139  9.93454
15.8898  12.6398
15.9658  15.4205
16.0417  16.3738
16.1176  18.7965
16.1936  21.336
16.2695  19.6678
16.3455  14.3101
16.4214  9.77823
16.4974  8.93812
16.5733  8.25669
16.6493  6.24664
16.7252  2.63629
16.8011  0.690754
16.8771  0.270733
16.953  -0.461169
17.029  -0.136637
17.1049  -0.919833
17.1809  0.0396582
17.2568  1.33398
17.3328  3.38265
17.4087  9.2397
17.4846  24.2884
17.5606  61.4546
17.6365  86.6849
17.7125  94.6029
17.7884  95.3217
17.8644  120.024
17.9403  100.977
18.0163  46.8148
18.0922  18.3153
18.1682  10.1979
18.2441  5.86262
18.32  6.05895
18.396  5.97946
18.4719  8.18858
18.5479  16.958
18.6238  32.5444
18.6998  57.2355
18.7757  67.4131
18.8517  59.7151
18.9276  37.5501
19.0035  20.0006
19.0795  6.80056
19.1554  0.950759
19.2314  2.79014
19.3073  10.733
19.3833  39.8346
19.4592  69.2958
19.5352  51.0642
19.6111  29.2299
19.687  15.0389
19.763  9.14112
19.8389  4.93151
19.9149  3.35432
19.9908  5.62883
20.0668  8.50891
20.1427  12.7163
20.2187  14.6199
20.2946  14.6625
20.3706  16.9988
20.4465  20.7079
20.5224  24.8775
20.5984  32.716
20.6743  43.0015
20.7503  55.4739
20.8262  84.9512
20.9022  193.939
20.9781  228.337
21.0541  61.2429
21.13  16.5964
21.2059  4.49769
21.2819  0.59059
21.3578  3.48175
21.4338  9.08373
21.5097  10.4943
21.5857  13.0835
21.6616  9.54649
21.7376  2.29149
21.8135  0.308671
21.8894  -0.77393
21.9654  -0.514822
22.0413  0.417349
22.1173  0.236195
22.1932  0.744012
22.2692  0.313979
22.3451  0.289099
22.4211  0.0982473
22.497  -0.409373
22.5729  -0.0146302
22.6489  -0.0554556
22.7248  0.0792612
22.8008  0.587524
22.8767  0.87484
22.9527  0.164911
23.0286  0.174069
23.1046  0.40656
23.1805  0.880996
23.2565  -0.00318875
23.3324  0.105339
23.4083  0.409394
23.4843  0.460138
23.5602  -0.0397526
23.6362  0.519058
23.7121  0.131841
23.7881  0.134609
23.864  0.471576
23.94  0.12838
24.0159  -0.0129619
24.0918  0.0663866
24.1678  0.247784
24.2437  0.189898

File: 7_ReMoB2_33p0GPa_390psi_P1_C4_D1w_059.dat
2.82731  0.732349
2.90325  1.14243
2.9792  0.581137
3.05514  0.054704
3.13109  1.48044
3.20703  2.00467
3.28298  3.2764
3.35892  4.4412
3.43487  20.9834
3.51081  31.4949
3.58676  6.30979
3.6627  2.04389
3.73864  1.90074
3.81459  0.696528
3.89053  1.21459
3.96648  0.895683
4.04242  0.00447604
4.11837  0.793702
4.19431  0.77751
4.27026  0.742388
4.3462  0.570033
4.42215  0.133367
4.49809  0.0373634
4.57404  0.51649
4.64998  -0.0934335
4.72593  1.10734
4.80187  0.652809
4.87782  1.02953
4.95376  -0.0196437
5.02971  0.765032
5.10565  0.556921
5.1816  0.101582
5.25754  0.435846
5.33349  0.341572
5.40943  0.115915
5.48537  0.785685
5.56132  1.3804
5.63726  0.955799
5.71321  0.904831
5.78915  0.189745
5.8651  0.223838
5.94104  0.687917
6.01699  0.336171
6.09293  0.361886
6.16888  0.456824
6.24482  0.293772
6.32077  1.02536
6.39671  1.09052
6.47266  1.92746
6.5486  6.8562
6.62455  24.5476
6.70049  18.8805
6.77644  14.4671
6.85238  41.088
6.92833  171.082
7.00427  167.959
7.08021  84.427
7.15616  16.7516
7.2321  4.17971
7.30805  1.25716
7.38399  0.922583
7.45994  0.620764
7.53588  0.747792
7.61183  0.925519
7.68777  0.762354
7.76372  0.733583
7.83966  -0.203068
7.91561  1.08459
7.99155  0.952283
8.0675  1.50075
8.14344  0.348631
8.21939  0.441332
8.29533  0.188647
8.37128  0.929399
8.44722  1.41679
8.52317  1.49595
8.59911  0.697847
8.67506  0.381543
8.751  0.173773
8.82694  -0.131661
8.90289  -0.427457
8.97883  0.841655
9.05478  3.11476
9.13072  8.08452
9.20667  27.5471
9.28261  109.624
9.35856  388.941
9.4345  666.713
9.51045  686.165
9.58639  542.09
9.66234  326.729
9.73828  104.917
9.81423  36.3931
9.89017  9.60573
9.96612  0.871811
10.0421  -0.56829
10.118  1.3362
10.194  1.03258
10.2699  0.613399
10.3458  5.31682
10.4218  37.2063
10.4977  50.6289
10.5737  28.6144
10.6496  30.0921
10.7256  36.6087
10.8015  47.6382
10.8775  56.5741
10.9534  60.7703
11.0293  52.5434
11.1053  38.6423
11.1812  29.0424
11.2572  18.7983
11.3331  11.2198
11.4091  6.05121
11.485  7.22684
11.561  3.2358
11.6369  -0.095783
11.7128  2.89872
11.7888  1.56135
11.8647  0.94393
11.9407  -0.702892
12.0166  -1.12372
12.0926  3.19117
12.1685  9.45402
12.2445  13.713
12.3204  27.7616
12.3963  96.0872
12.4723  430.859
12.5482  513
12.6242  204.096
12.7001  104.899
12.7761  72.1327
12.852  66.602
12.928  69.7356
13.0039  69.4469
13.0799  63.242
13.1558  58.4976
13.2317  66.8709
13.3077  125.682
13.3836  345.891
13.4596  206.255
13.5355  41.1266
13.6115  4.25576
13.6874  0.0438623
13.7634  2.70833
13.8393  6.18265
13.9152  8.24406
13.9912  7.75245
14.0671  5.39638
14.1431  1.65899
14.219  0.342535
14.295  -1.02364
14.3709  -0.406533
14.4469  -0.37888
14.5228  -0.288695
14.5987  -0.206649
14.6747  0.377364
14.7506  0.605507
14.8266  1.04251
14.9025  0.430641
14.9785  0.58055
15.0544  -0.0360946
15.1304  0.208761
15.2063  0.396248
15.2823  -0.257741
15.3582  0.573179
15.4341  1.77839
15.5101  1.63571
15.586  3.11813
15.662  4.02934
15.7379  5.68715
15.8139  9.67968
15.8898  16.2593
15.9658  25.7651
16.0417  30.4531
16.1176  24.8361
16.1936  15.3792
16.2695  13.6775
16.3455  11.1771
16.4214  8.44139
16.4974  6.40837
16.5733  4.75254
16.6493  4.77829
16.7252  4.80631
16.8011  1.68655
16.8771  0.919574
16.953  -0.206217
17.029  -0.154129
17.1049  -0.0748172
17.1809  -1.02919
17.2568  -0.447258
17.3328  0.197715
17.4087  2.38213
17.4846  7.33121
17.5606  21.1948
17.6365  61.1977
17.7125  86.044
17.7884  98.8686
17.8644  126.35
17.9403  160.869
18.0163  200.288
18.0922  72.5538
18.1682  33.9995
18.2441  18.0129
18.32  15.6308
18.396  13.9733
18.4719  11.4917
18.5479  10.667
18.6238  13.8956
18.6998  27.6727
18.7757  47.0099
18.8517  61.0529
18.9276  49.7706
19.0035  47.1062
19.0795  80.1078
19.1554  63.1008
19.2314  18.0298
19.3073  7.3642
19.3833  10.8181
19.4592  21.0672
19.5352  27.0123
19.6111  25.6757
19.687  24.4012
19.763  12.5447
19.8389  3.52595
19.9149  0.477137
19.9908  1.6267
20.0668  2.91396
20.1427  3.55592
20.2187  5.27427
20.2946  6.80512
20.3706  8.72183
20.4465  10.3514
20.5224  12.8708
20.5984  15.27
20.6743  18.0509
20.7503  23.528
20.8262  31.3485
20.9022  43.7555
20.9781  67.394
21.0541  94.2443
21.13  50.289
21.2059  17.1829
21.2819  3.67013
21.3578  1.54344
21.4338  6.42453
21.5097  20.7554
21.5857  30.3293
21.6616  28.5794
21.7376  21.9802
21.8135  12.521
21.8894  2.6149
21.9654  -0.0777072
22.0413  -0.605339
22.1173  -0.0948523
22.1932  0.186946
22.2692  -0.0402358
22.3451  0.395722
22.4211  0.391452
22.497  -0.0227672
22.5729  0.470952
22.6489  -0.281574
22.7248  -0.038097
22.8008  -0.11514
22.8767  0.200635
22.9527  0.0850893
23.0286  0.0781145
23.1046  0.462059
23.1805  -0.0433594
23.2565  0.261061
23.3324  0.182458
23.4083  -0.0465058
23.4843  0.578996
23.5602  0.351806
23.6362  0.668425
23.7121  0.412942
23.7881  0.523243
23.864  0.0810877
23.94  0.144567
24.0159  0.371941
24.0918  -0.0134753
24.1678  0.063259
24.2437  -0.0631324

File: 8_ReMoB2_38p0GPa_430psi_P1_C4_D1w_065.dat
2.82731  0.433792
2.90325  0.0856911
2.9792  1.15121
3.05514  0.323442
3.13109  1.58809
3.20703  1.01646
3.28298  1.57682
3.35892  3.22011
3.43487  10.5139
3.51081  23.4617
3.58676  6.60788
3.6627  1.69728
3.73864  0.91341
3.81459  1.05774
3.89053  0.788651
3.96648  1.15288
4.04242  0.792682
4.11837  0.709943
4.19431  0.82203
4.27026  0.267032
4.3462  0.356625
4.42215  0.954117
4.49809  0.0882873
4.57404  0.311859
4.64998  0.995075
4.72593  0.896297
4.80187  1.54273
4.87782  1.29682
4.95376  1.7994
5.02971  1.48836
5.10565  1.22351
5.1816  0.387102
5.25754  1.37395
5.33349  -0.565166
5.40943  1.45246
5.48537  1.02723
5.56132  1.98108
5.63726  0.164344
5.71321  1.68683
5.78915  1.90297
5.8651  0.727512
5.94104  -0.0701586
6.01699  0.46879
6.09293  0.902869
6.16888  0.176978
6.24482  0.744295
6.32077  1.65558
6.39671  1.8099
6.47266  2.82913
6.5486  8.1292
6.62455  49.7047
6.70049  75.7782
6.77644  28.4883
6.85238  26.3075
6.92833  71.4907
7.00427  130.551
7.08021  82.7248
7.15616  19.5428
7.2321  6.85988
7.30805  2.72724
7.38399  2.32338
7.45994  0.863335
7.53588  -0.182206
7.61183  0.535198
7.68777  1.47847
7.76372  1.11373
7.83966  -0.0105893
7.91561  0.934133
7.99155  1.12474
8.0675  0.505004
8.14344  0.861004
8.21939  0.455102
8.29533  0.625113
8.37128  -0.187936
8.44722  1.29221
8.52317  0.382628
8.59911  0.774005
8.67506  0.242477
8.751  0.119185
8.82694  -0.150483
8.90289  0.0131741
8.97883  0.314855
9.05478  1.77682
9.13072  6.35887
9.20667  19.8785
9.28261  74.6601
9.35856  322.677
9.4345  713.522
9.51045  926.259
9.58639  784.38
9.66234  490.886
9.73828  217.583
9.81423  80.9108
9.89017  29.6404
9.96612  8.65987
10.0421  0.942839
10.118  0.140877
10.194  2.69694
10.2699  2.56274
10.3458  -0.191799
10.4218  3.8856
10.4977  15.0779
10.5737  21.6975
10.6496  31.0435
10.7256  44.826
10.8015  58.6005
10.8775  70.1371
10.9534  72.9138
11.0293  67.4539
11.1053  52.8727
11.1812  39.8453
11.2572  29.0597
11.3331  15.4784
11.4091  6.99142
11.485  5.38164
11.561  3.42371
11.6369  -0.669854
11.7128  -2.44731
11.7888  0.120132
11.8647  4.29814
11.9407  4.63679
12.0166  6.89691
12.0926  12.4172
12.1685  22.9365
12.2445  40.9214
12.3204  52.7881
12.3963  60.8456
12.4723  119.694
12.5482  290.576
12.6242  212.45
12.7001  141.947
12.7761  105.174
12.852  95.696
12.928  98.5728
13.0039  100.526
13.0799  90.8449
13.1558  74.1442
13.2317  58.4896
13.3077  49.9313
13.3836  50.3541
13.4596  39.1662
13.5355  11.5386
13.6115  -0.976583
13.6874  -1.75978
13.7634  0.539097
13.8393  4.20651
13.9152  9.60143
13.9912  12.4426
14.0671  9.22801
14.1431  4.10982
14.219  1.55539
14.295  -0.0254102
14.3709  -0.345081
14.4469  -0.64424
14.5228  -0.667036
14.5987  -0.332889
14.6747  0.37056
14.7506  1.04648
14.8266  2.90369
14.9025  2.91387
14.9785  1.1792
15.0544  0.726967
15.1304  -0.462094
15.2063  0.288137
15.2823  -0.435657
15.3582  0.789302
15.4341  1.16873
15.5101  1.20649
15.586  2.42962
15.662  2.8923
15.7379  3.74708
15.8139  4.91022
15.8898  5.72139
15.9658  8.32337
16.0417  14.2632
16.1176  22.6891
16.1936  23.7795
16.2695  16.8244
16.3455  12.8894
16.4214  9.30487
16.4974  7.49646
16.5733  6.13393
16.6493  6.30472
16.7252  5.77642
16.8011  4.00044
16.8771  1.77702
16.953  0.535571
17.029  -0.390418
17.1049  -0.0979427
17.1809  0.325963
17.2568  -0.696538
17.3328  -0.177429
17.4087  0.0379323
17.4846  2.37288
17.5606  5.74279
17.6365  12.8203
17.7125  33.8197
17.7884  84.1233
17.8644  175.672
17.9403  242.452
18.0163  210.745
18.0922  146.396
18.1682  63.5699
18.2441  30.9699
18.32  19.8882
18.396  14.145
18.4719  12.8519
18.5479  15.8967
18.6238  22.2926
18.6998  31.4111
18.7757  38.9142
18.8517  48.6936
18.9276  51.4008
19.0035  43.1688
19.0795  39.615
19.1554  47.1549
19.2314  39.2563
19.3073  15.3882
19.3833  2.67028
19.4592  6.3532
19.5352  16.2471
19.6111  22.6573
19.687  21.0118
19.763  15.5676
19.8389  9.02178
19.9149  4.88919
19.9908  2.4463
20.0668  2.48068
20.1427  2.83143
20.2187  3.54143
20.2946  5.66186
20.3706  8.64218
20.4465  10.8328
20.5224  11.8824
20.5984  14.4141
20.6743  18.0862
20.7503  21.6942
20.8262  25.7108
20.9022  29.292
20.9781  30.6355
21.0541  30.2002
21.13  25.757
21.2059  13.2184
21.2819  4.96086
21.3578  0.262956
21.4338  -0.283914
21.5097  3.3803
21.5857  22.7992
21.6616  50.1588
21.7376  73.6122
21.8135  46.6194
21.8894  19.2411
21.9654  12.6401
22.0413  6.62945
22.1173  0.429273
22.1932  -0.612691
22.2692  -0.358241
22.3451  -0.0225982
22.4211  0.384657
22.497  0.293801
22.5729  0.517754
22.6489  0.595126
22.7248  0.319395
22.8008  -0.0791804
22.8767  0.0205254
22.9527  0.0996669
23.0286  0.0410723
23.1046  0.401567
23.1805  0.272138
23.2565  0.285344
23.3324  0.0381103
23.4083  -0.175926
23.4843  0.469708
23.5602  0.575663
23.6362  0.360442
23.7121  -0.01714
23.7881  0.461425
23.864  0.230055
23.94  0.273918
24.0159  0.0949855
24.0918  0.133589
24.1678  -0.0642427
24.2437  -0.186892

File: 9_ReMoB2_45p0GPa_470psi_P1_C4_D1w_071.dat
2.82731  0.627056
2.90325  0.743882
2.9792  1.39969
3.05514  -0.0347317
3.13109  2.78431
3.20703  0.923851
3.28298  2.57312
3.35892  4.26974
3.43487  12.705
3.51081  30.7484
3.58676  7.56088
3.6627  2.77866
3.73864  1.35225
3.81459  1.04877
3.89053  0.0249396
3.96648  0.797105
4.04242  0.35321
4.11837  0.632267
4.19431  0.833513
4.27026  0.577061
4.3462  0.354736
4.42215  -0.0967941
4.49809  0.121703
4.57404  0.384625
4.64998  0.293103
4.72593  0.330575
4.80187  0.708035
4.87782  0.732646
4.95376  0.236727
5.02971  0.831657
5.10565  0.899666
5.1816  0.04785
5.25754  0.515612
5.33349  0.828939
5.40943  0.87326
5.48537  0.739884
5.56132  -0.0418585
5.63726  1.7941
5.71321  1.22867
5.78915  1.50198
5.8651  -0.100338
5.94104  0.660693
6.01699  -0.40698
6.09293  -0.226277
6.16888  0.634846
6.24482  0.132552
6.32077  1.63461
6.39671  2.88976
6.47266  3.36213
6.5486  5.49977
6.62455  15.1688
6.70049  42.1591
6.77644  39.9279
6.85238  35.4834
6.92833  80.9644
7.00427  208.717
7.08021  130.227
7.15616  38.7239
7.2321  13.1889
7.30805  5.38569
7.38399  2.37542
7.45994  1.79609
7.53588  0.389255
7.61183  0.332188
7.68777  0.558057
7.76372  0.271051
7.83966  1.00424
7.91561  0.385386
7.99155  0.0932955
8.0675  0.556176
8.14344  0.0147764
8.21939  1.55898
8.29533  0.994957
8.37128  0.242231
8.44722  0.770623
8.52317  0.601889
8.59911  0.60668
8.67506  0.0488073
8.751  -0.0213127
8.82694  -0.0994001
8.90289  -0.128226
8.97883  0.106017
9.05478  1.88119
9.13072  10.4051
9.20667  29.4492
9.28261  73.2483
9.35856  203.064
9.4345  590.574
9.51045  1045.91
9.58639  1011.3
9.66234  616.099
9.73828  313.707
9.81423  138.593
9.89017  53.8354
9.96612  17.8255
10.0421  3.78401
10.118  0.190613
10.194  0.0487721
10.2699  0.0257901
10.3458  -1.08162
10.4218  -0.0325085
10.4977  11.9759
10.5737  22.0304
10.6496  24.26
10.7256  28.3797
10.8015  35.8476
10.8775  44.7206
10.9534  54.4363
11.0293  63.4723
11.1053  65.4344
11.1812  58.376
11.2572  65.3259
11.3331  58.0708
11.4091  30.2764
11.485  12.6461
11.561  5.55314
11.6369  1.62158
11.7128  -1.20766
11.7888  5.64737
11.8647  14.4927
11.9407  15.266
12.0166  14.2467
12.0926  13.8405
12.1685  14.3916
12.2445  15.722
12.3204  21.346
12.3963  31.2737
12.4723  50.3353
12.5482  87.911
12.6242  116.464
12.7001  97.7627
12.7761  71.451
12.852  62.8252
12.928  61.8807
13.0039  59.9077
13.0799  57.0298
13.1558  53.2319
13.2317  45.3881
13.3077  37.7151
13.3836  33.7846
13.4596  38.1407
13.5355  33.8318
13.6115  10.5603
13.6874  -1.04789
13.7634  -0.720272
13.8393  0.864464
13.9152  5.95169
13.9912  16.0464
14.0671  19.0566
14.1431  11.0126
14.219  3.80407
14.295  0.984974
14.3709  0.166392
14.4469  0.00885765
14.5228  -0.399378
14.5987  -0.175828
14.6747  -0.284475
14.7506  -0.141628
14.8266  0.18177
14.9025  1.24269
14.9785  0.883909
15.0544  0.88102
15.1304  -0.412572
15.2063  -0.316437
15.2823  -0.0141013
15.3582  -0.0122136
15.4341  0.318668
15.5101  0.932523
15.586  2.15994
15.662  10.226
15.7379  9.87436
15.8139  6.56633
15.8898  8.53472
15.9658  10.1684
16.0417  13.3877
16.1176  18.5207
16.1936  27.2623
16.2695  31.8238
16.3455  23.5764
16.4214  15.3889
16.4974  11.5925
16.5733  9.49386
16.6493  8.68144
16.7252  7.88863
16.8011  7.00945
16.8771  4.96223
16.953  2.70982
17.029  0.473645
17.1049  -0.158837
17.1809  0.0242787
17.2568  -0.110067
17.3328  -0.942212
17.4087  0.724408
17.4846  4.59992
17.5606  8.21307
17.6365  10.5598
17.7125  16.6294
17.7884  26.494
17.8644  55.5572
17.9403  112.141
18.0163  129.938
18.0922  105.176
18.1682  72.4672
18.2441  36.3385
18.32  17.9653
18.396  11.1521
18.4719  8.11103
18.5479  7.98533
18.6238  9.87064
18.6998  15.7709
18.7757  24.9683
18.8517  35.8639
18.9276  42.3689
19.0035  41.8379
19.0795  31.5312
19.1554  19.1638
19.2314  10.1049
19.3073  3.09581
19.3833  0.376563
19.4592  2.71742
19.5352  11.2414
19.6111  26.3851
19.687  42.957
19.763  56.0608
19.8389  54.2509
19.9149  39.3802
19.9908  23.2655
20.0668  14.6441
20.1427  11.5924
20.2187  11.2761
20.2946  12.007
20.3706  12.4944
20.4465  13.2256
20.5224  13.1798
20.5984  13.804
20.6743  14.2083
20.7503  15.0818
20.8262  17.1532
20.9022  19.3833
20.9781  20.3506
21.0541  20.8433
21.13  18.5491
21.2059  12.9393
21.2819  7.52931
21.3578  3.32283
21.4338  0.993406
21.5097  -0.564325
21.5857  0.710166
21.6616  7.58264
21.7376  27.1148
21.8135  64.9759
21.8894  89.6196
21.9654  45.8239
22.0413  16.0767
22.1173  8.4958
22.1932  2.11021
22.2692  -0.576449
22.3451  -0.430678
22.4211  1.17515
22.497  0.438112
22.5729  0.22312
22.6489  0.241259
22.7248  0.207672
22.8008  0.165311
22.8767  -0.206813
22.9527  -0.175074
23.0286  0.107908
23.1046  0.681309
23.1805  0.473012
23.2565  0.384411
23.3324  -0.136743
23.4083  0.0380341
23.4843  0.777746
23.5602  1.5881
23.6362  0.406043
23.7121  0.0720955
23.7881  0.32177
23.864  -0.13147
23.94  0.414301
24.0159  0.0864975
24.0918  0.00677762
24.1678  0.00911045
24.2437  -0.0580584

File: 10_ReMoB2_49p0GPa_490psi_P1_C4_D1w_077.dat
2.82731  0.626499
2.90325  0.0868292
2.9792  1.11699
3.05514  0.0519903
3.13109  1.70057
3.20703  1.17464
3.28298  2.60513
3.35892  3.35725
3.43487  11.4149
3.51081  28.0668
3.58676  12.1897
3.6627  3.46245
3.73864  1.73145
3.81459  2.2612
3.89053  0.886446
3.96648  1.4557
4.04242  0.658855
4.11837  0.737872
4.19431  1.22971
4.27026  0.437814
4.3462  -0.330892
4.42215  0.244823
4.49809  0.178539
4.57404  0.766397
4.64998  0.379417
4.72593  0.825981
4.80187  0.706631
4.87782  0.544209
4.95376  0.185624
5.02971  0.176523
5.10565  1.34565
5.1816  0.331215
5.25754  1.15434
5.33349  1.14617
5.40943  0.910927
5.48537  1.19182
5.56132  0.872343
5.63726  0.509788
5.71321  0.575881
5.78915  1.16034
5.8651  -0.110149
5.94104  0.829329
6.01699  0.49798
6.09293  -0.537919
6.16888  0.238804
6.24482  0.454051
6.32077  0.373871
6.39671  1.57557
6.47266  3.09691
6.5486  2.56922
6.62455  4.45205
6.70049  15.6826
6.77644  26.5962
6.85238  29.0157
6.92833  64.2744
7.00427  150.398
7.08021  139.013
7.15616  63.807
7.2321  18.0817
7.30805  6.42387
7.38399  4.03609
7.45994  2.40155
7.53588  1.33683
7.61183  1.34692
7.68777  1.6498
7.76372  0.586053
7.83966  -0.24717
7.91561  0.446677
7.99155  0.68114
8.0675  0.34352
8.14344  -0.433053
8.21939  -0.040792
8.29533  0.492611
8.37128  0.030187
8.44722  0.602272
8.52317  1.09779
8.59911  0.909903
8.67506  0.0340772
8.751  0.686582
8.82694  0.11846
8.90289  -0.547073
8.97883  0.495648
9.05478  3.52632
9.13072  13.7696
9.20667  57.6786
9.28261  124.457
9.35856  153.311
9.4345  329.693
9.51045  967.288
9.58639  1249.52
9.66234  871.395
9.73828  472.477
9.81423  211.652
9.89017  79.559
9.96612  29.8399
10.0421  10.4201
10.118  4.76969
10.194  2.98888
10.2699  -1.15673
10.3458  -2.31883
10.4218  3.44143
10.4977  11.8477
10.5737  16.078
10.6496  30.2973
10.7256  50.9347
10.8015  67.5949
10.8775  90.3809
10.9534  111.593
11.0293  120.907
11.1053  125.614
11.1812  105.284
11.2572  90.505
11.3331  76.1668
11.4091  40.5651
11.485  11.5514
11.561  3.9578
11.6369  1.02236
11.7128  -1.41806
11.7888  0.126161
11.8647  4.50976
11.9407  8.60857
12.0166  9.63575
12.0926  18.5008
12.1685  31.3183
12.2445  19.3075
12.3204  11.9583
12.3963  18.6004
12.4723  32.9624
12.5482  63.5632
12.6242  129.387
12.7001  152.599
12.7761  140.257
12.852  124.507
12.928  130.567
13.0039  138.865
13.0799  131.666
13.1558  109.15
13.2317  101.152
13.3077  85.1147
13.3836  60.6235
13.4596  52.9025
13.5355  39.2559
13.6115  15.5301
13.6874  0.826331
13.7634  -2.70634
13.8393  0.665374
13.9152  7.16309
13.9912  11.5244
14.0671  13.9777
14.1431  10.3841
14.219  6.42978
14.295  2.67688
14.3709  0.840781
14.4469  0.190771
14.5228  -0.110349
14.5987  -0.704819
14.6747  0.011314
14.7506  -0.18357
14.8266  0.593229
14.9025  0.331088
14.9785  1.10503
15.0544  0.750123
15.1304  0.101745
15.2063  0.811505
15.2823  0.0320209
15.3582  0.327476
15.4341  -0.0328736
15.5101  0.322029
15.586  0.193803
15.662  0.471277
15.7379  1.55612
15.8139  2.54879
15.8898  4.04964
15.9658  7.5694
16.0417  10.2027
16.1176  17.164
16.1936  52.6501
16.2695  80.9829
16.3455  35.0163
16.4214  28.9315
16.4974  32.5572
16.5733  30.2079
16.6493  19.1342
16.7252  16.3658
16.8011  15.0369
16.8771  9.5597
16.953  9.71322
17.029  5.01515
17.1049  1.38639
17.1809  -0.36715
17.2568  -0.936245
17.3328  -0.512288
17.4087  -0.353643
17.4846  2.1682
17.5606  6.50634
17.6365  9.04844
17.7125  12.8536
17.7884  19.8679
17.8644  46.3424
17.9403  162.452
18.0163  299.615
18.0922  182.65
18.1682  116.817
18.2441  77.971
18.32  46.351
18.396  22.0102
18.4719  12.17
18.5479  8.56223
18.6238  8.74186
18.6998  9.58192
18.7757  14.1503
18.8517  24.8253
18.9276  32.9408
19.0035  39.7662
19.0795  40.5371
19.1554  35.1855
19.2314  25.5679
19.3073  12.3654
19.3833  3.24094
19.4592  1.32745
19.5352  6.57373
19.6111  19.5949
19.687  43.8063
19.763  63.4224
19.8389  64.1096
19.9149  43.9765
19.9908  30.3067
20.0668  23.2255
20.1427  18.6041
20.2187  14.9339
20.2946  12.2857
20.3706  11.7766
20.4465  11.2641
20.5224  11.2529
20.5984  12.487
20.6743  13.4318
20.7503  14.758
20.8262  16.4206
20.9022  17.6706
20.9781  20.802
21.0541  24.1518
21.13  29.51
21.2059  33.3038
21.2819  33.3748
21.3578  24.7195
21.4338  10.6115
21.5097  2.62891
21.5857  -0.578467
21.6616  0.718248
21.7376  9.03865
21.8135  13.8611
21.8894  13.594
21.9654  14.0239
22.0413  10.0069
22.1173  5.59098
22.1932  3.19866
22.2692  0.737934
22.3451  -0.436488
22.4211  -0.0160967
22.497  0.180846
22.5729  0.856021
22.6489  0.104979
22.7248  0.0299278
22.8008  0.173266
22.8767  0.000312109
22.9527  0.211813
23.0286  -0.110535
23.1046  1.97641
23.1805  0.393099
23.2565  -0.0223803
23.3324  0.272458
23.4083  0.13762
23.4843  0.185878
23.5602  0.0241403
23.6362  0.56059
23.7121  0.113256
23.7881  0.106688
23.864  0.281735
23.94  0.0220134
24.0159  0.308482
24.0918  0.145375
24.1678  -0.288778
24.2437  -0.23208