Folder: remob2/data/processed/Run1_XRD

Note: data/processed/Run1_XRD/README.md
Xray data files from Run 1.
The pressures in the file names are rough estimates of the pressure determined during the measurement process.
For more exact pressures go to processed/HPXRDrefinement/refinements.pdf.
In the file names "C4" indicates the measurements were performed for postion 4.
The location of position 4 for Run 1 is shown in processed/Measurement_details.pdf.

File: 1_ReMoB2_0pGPa_0psi_Samp_P1_C4_D1w_024.dat
2.82731  0.304086
2.90325  2.20526
2.9792  1.14681
3.05514  2.08482
3.13109  1.80598
3.20703  1.82765
3.28298  2.03703
3.35892  2.46304
3.43487  4.93347
3.51081  2.3166
3.58676  1.87876
3.6627  1.81636
3.73864  1.43167
3.81459  2.65198
3.89053  0.998986
3.96648  1.58211
4.04242  1.5035
4.11837  0.964056
4.19431  1.70459
4.27026  1.22065
4.3462  -0.0768284
4.42215  0.609
4.49809  0.0085347
4.57404  0.626151
4.64998  0.607507
4.72593  0.94516
4.80187  0.950594
4.87782  1.549
4.95376  0.0162602
5.02971  1.61636
5.10565  2.02878
5.1816  1.20004
5.25754  1.46815
5.33349  1.15561
5.40943  0.61653
5.48537  0.974852
5.56132  0.778144
5.63726  1.52006
5.71321  0.656824
5.78915  1.74593
5.8651  1.33832
5.94104  0.906056
6.01699  0.47596
6.09293  -0.127056
6.16888  0.572467
6.24482  0.660799
6.32077  1.66879
6.39671  1.9898
6.47266  3.82866
6.5486  1.11737
6.62455  0.711389
6.70049  2.11327
6.77644  8.64289
6.85238  14.9103
6.92833  2.20993
7.00427  0.961044
7.08021  0.575056
7.15616  0.0597838
7.2321  0.611431
7.30805  -0.110904
7.38399  0.752111
7.45994  0.541155
7.53588  1.07304
7.61183  1.1205
7.68777  0.666428
7.76372  0.681293
7.83966  0.950309
7.91561  0.609671
7.99155  1.12502
8.0675  1.30185
8.14344  -0.0316292
8.21939  0.731852
8.29533  0.101582
8.37128  0.182098
8.44722  1.04905
8.52317  1.04444
8.59911  0.281806
8.67506  0.0429638
8.751  0.923753
8.82694  0.451981
8.90289  0.903492
8.97883  2.78019
9.05478  12.1124
9.13072  216.438
9.20667  368.82
9.28261  84.5805
9.35856  241.842
9.4345  236.182
9.51045  19.6654
9.58639  3.93242
9.66234  1.55063
9.73828  0.303164
9.81423  1.07878
9.89017  7.60653
9.96612  27.8711
10.0421  2.96136
10.118  90.9602
10.194  88.4944
10.2699  11.3139
10.3458  0.804966
10.4218  0.850015
10.4977  0.677509
10.5737  3.82455
10.6496  42.0463
10.7256  274.619
10.8015  133.008
10.8775  17.5962
10.9534  5.52218
11.0293  4.60245
11.1053  3.84484
11.1812  4.04383
11.2572  5.67657
11.3331  3.58288
11.4091  1.16882
11.485  0.16299
11.561  -0.0147951
11.6369  0.657349
11.7128  1.05445
11.7888  5.90372
11.8647  2.75355
11.9407  2.88454
12.0166  7.95544
12.0926  45.7233
12.1685  53.1207
12.2445  10.9243
12.3204  5.32506
12.3963  4.47548
12.4723  4.09057
12.5482  3.81846
12.6242  4.36738
12.7001  6.40307
12.7761  16.7945
12.852  154.279
12.928  81.5857
13.0039  11.9618
13.0799  2.09171
13.1558  0.420284
13.2317  0.759607
13.3077  1.13531
13.3836  0.813316
13.4596  0.0833746
13.5355  1.72159
13.6115  32.0898
13.6874  6.45088
13.7634  1.515
13.8393  0.631735
13.9152  0.0235243
13.9912  0.458671
14.0671  0.49319
14.1431  0.716222
14.219  0.673005
14.295  0.89983
14.3709  1.30484
14.4469  0.401509
14.5228  1.39775
14.5987  1.54783
14.6747  1.42667
14.7506  0.174203
14.8266  0.45621
14.9025  -0.0543718
14.9785  0.850239
15.0544  0.561959
15.1304  0.865219
15.2063  2.21509
15.2823  2.70921
15.3582  10.04
15.4341  237.805
15.5101  257.376
15.586  63.3535
15.662  10.5947
15.7379  13.446
15.8139  27.8089
15.8898  11.1681
15.9658  3.21243
16.0417  1.07995
16.1176  2.31726
16.1936  2.94756
16.2695  0.850962
16.3455  0.920836
16.4214  0.843652
16.4974  0.521728
16.5733  -0.114513
16.6493  0.0398139
16.7252  -0.131395
16.8011  0.148484
16.8771  0.206311
16.953  0.927654
17.029  9.2988
17.1049  6.82523
17.1809  32.3835
17.2568  59.6335
17.3328  26.5792
17.4087  22.7151
17.4846  13.1977
17.5606  3.51516
17.6365  1.55923
17.7125  0.714935
17.7884  0.545767
17.8644  0.847917
17.9403  0.964813
18.0163  1.43356
18.0922  2.55511
18.1682  3.71275
18.2441  15.3834
18.32  151.198
18.396  144.6
18.4719  200.443
18.5479  33.0626
18.6238  8.70492
18.6998  5.67378
18.7757  46.4166
18.8517  159.141
18.9276  69.4147
19.0035  19.4807
19.0795  5.83969
19.1554  14.6169
19.2314  14.09
19.3073  4.57491
19.3833  4.43659
19.4592  4.55173
19.5352  4.69076
19.6111  5.53688
19.687  5.70251
19.763  7.80724
19.8389  8.10254
19.9149  20.0005
19.9908  20.3893
20.0668  12.5636
20.1427  10.0195
20.2187  11.1064
20.2946  11.5558
20.3706  51.5074
20.4465  85.5892
20.5224  75.908
20.5984  21.6222
20.6743  13.7848
20.7503  10.8354
20.8262  18.2003
20.9022  123.162
20.9781  159.35
21.0541  72.933
21.13  10.4869
21.2059  3.97944
21.2819  1.34305
21.3578  0.887782
21.4338  2.42395
21.5097  1.24182
21.5857  0.00796006
21.6616  -0.075273
21.7376  0.287696
21.8135  0.473618
21.8894  0.0149878
21.9654  0.0348969
22.0413  0.0559032
22.1173  -0.0817931
22.1932  -0.145881
22.2692  -0.0794253
22.3451  0.255681
22.4211  0.279468
22.497  0.0581162
22.5729  0.523998
22.6489  -0.199464
22.7248  0.255263
22.8008  0.175333
22.8767  0.424656
22.9527  0.428986
23.0286  0.261633
23.1046  0.21465
23.1805  -0.0764392
23.2565  0.163246
23.3324  0.0789846
23.4083  0.129943
23.4843  0.419026
23.5602  0.316381
23.6362  0.27826
23.7121  0.48351
23.7881  0.502431
23.864  0.282254
23.94  0.0601438
24.0159  0.105315
24.0918  -0.00666524
24.1678  0.0974375
24.2437  0.0391198

File: 2_ReMoB2_5pGPa_230psi_P1_C4_D1w_029.dat
2.82731  0.354493
2.90325  0.447709
2.9792  0.0269376
3.05514  0.3361
3.13109  2.03852
3.20703  1.30641
3.28298  1.77529
3.35892  9.56794
3.43487  24.0823
3.51081  4.418
3.58676  0.686931
3.6627  0.359797
3.73864  1.54122
3.81459  0.783062
3.89053  0.705564
3.96648  1.49243
4.04242  -0.0114768
4.11837  0.963791
4.19431  0.983419
4.27026  0.265819
4.3462  0.484063
4.42215  0.330503
4.49809  0.768489
4.57404  0.821725
4.64998  0.98495
4.72593  1.56762
4.80187  -0.373014
4.87782  1.3098
4.95376  1.62593
5.02971  0.286703
5.10565  0.176424
5.1816  1.18853
5.25754  1.14108
5.33349  0.891158
5.40943  0.0586066
5.48537  0.399523
5.56132  0.119673
5.63726  0.651076
5.71321  0.430018
5.78915  1.37106
5.8651  0.133212
5.94104  0.819739
6.01699  0.912857
6.09293  0.131582
6.16888  0.620747
6.24482  0.880818
6.32077  0.925264
6.39671  1.54644
6.47266  5.42737
6.5486  3.47519
6.62455  1.77077
6.70049  5.90167
6.77644  68.844
6.85238  195.633
6.92833  53.4421
7.00427  10.1097
7.08021  3.7909
7.15616  2.12778
7.2321  1.06182
7.30805  0.328475
7.38399  1.31345
7.45994  1.66532
7.53588  1.16604
7.61183  0.901106
7.68777  1.24235
7.76372  1.08766
7.83966  -0.0376105
7.91561  0.542807
7.99155  0.260003
8.0675  0.633899
8.14344  0.721203
8.21939  0.230127
8.29533  1.19097
8.37128  0.96674
8.44722  0.359463
8.52317  0.64137
8.59911  0.655798
8.67506  0.0253923
8.751  -0.480955
8.82694  0.189647
8.90289  0.550314
8.97883  4.72064
9.05478  41.5834
9.13072  466.351
9.20667  1545.61
9.28261  1290.11
9.35856  902.022
9.4345  580.586
9.51045  214.782
9.58639  82.0191
9.66234  26.9567
9.73828  8.10564
9.81423  0.491357
9.89017  0.054878
9.96612  4.39544
10.0421  2.67952
10.118  4.66713
10.194  36.948
10.2699  68.3563
10.3458  35.7264
10.4218  20.3408
10.4977  18.2469
10.5737  24.4008
10.6496  44.4426
10.7256  137.286
10.8015  323.668
10.8775  314.542
10.9534  90.7889
11.0293  23.5815
11.1053  8.71181
11.1812  4.96198
11.2572  5.75305
11.3331  7.61363
11.4091  4.37032
11.485  0.806779
11.561  -0.313395
11.6369  -0.897023
11.7128  -0.368521
11.7888  2.4477
11.8647  2.13618
11.9407  2.43214
12.0166  12.4147
12.0926  52.5987
12.1685  86.4792
12.2445  55.1981
12.3204  33.4302
12.3963  21.858
12.4723  15.7305
12.5482  16.2984
12.6242  22.2
12.7001  29.1327
12.7761  45.1132
12.852  90.9356
12.928  125.05
13.0039  98.7318
13.0799  55.225
13.1558  22.525
13.2317  9.13505
13.3077  4.23704
13.3836  0.905831
13.4596  0.00969286
13.5355  0.177927
13.6115  4.36636
13.6874  14.6176
13.7634  13.002
13.8393  5.72272
13.9152  0.478483
13.9912  0.21406
14.0671  0.304299
14.1431  0.134987
14.219  0.177404
14.295  -0.326913
14.3709  1.17606
14.4469  0.692692
14.5228  0.622325
14.5987  0.00163671
14.6747  0.345707
14.7506  0.554522
14.8266  -0.15185
14.9025  0.00512533
14.9785  -0.28465
15.0544  0.865019
15.1304  1.44352
15.2063  2.39556
15.2823  3.96215
15.3582  8.53737
15.4341  23.7548
15.5101  66.3468
15.586  94.8213
15.662  66.9724
15.7379  36.0491
15.8139  30.6334
15.8898  29.6772
15.9658  22.5978
16.0417  15.3325
16.1176  10.9752
16.1936  7.00969
16.2695  4.09829
16.3455  2.29882
16.4214  1.11501
16.4974  0.643694
16.5733  0.585839
16.6493  0.153625
16.7252  -0.220336
16.8011  -0.288662
16.8771  -0.493974
16.953  -0.250594
17.029  1.91478
17.1049  9.45637
17.1809  26.3206
17.2568  52.1958
17.3328  89.3442
17.4087  99.1282
17.4846  147.881
17.5606  150.048
17.6365  107.821
17.7125  57.5221
17.7884  22.1703
17.8644  10.1512
17.9403  3.8615
18.0163  0.98822
18.0922  0.40774
18.1682  4.8202
18.2441  22.4651
18.32  55.4191
18.396  81.2028
18.4719  85.7451
18.5479  74.8517
18.6238  66.3335
18.6998  36.6539
18.7757  19.0332
18.8517  22.7735
18.9276  43.1097
19.0035  55.2504
19.0795  60.9335
19.1554  49.4947
19.2314  41.5431
19.3073  28.2649
19.3833  16.552
19.4592  9.30174
19.5352  3.59481
19.6111  1.00528
19.687  0.579999
19.763  1.63069
19.8389  2.93593
19.9149  5.30174
19.9908  9.5813
20.0668  13.2272
20.1427  16.3824
20.2187  21.2983
20.2946  26.4018
20.3706  37.7502
20.4465  60.9181
20.5224  69.3746
20.5984  58.2987
20.6743  52.007
20.7503  37.2937
20.8262  23.9072
20.9022  20.4639
20.9781  29.7853
21.0541  52.6852
21.13  72.0164
21.2059  43.5274
21.2819  13.7359
21.3578  4.20321
21.4338  0.83606
21.5097  -0.390365
21.5857  -0.355399
21.6616  0.182756
21.7376  0.405098
21.8135  0.882149
21.8894  0.0548698
21.9654  -0.181135
22.0413  0.032094
22.1173  -0.419028
22.1932  -0.172387
22.2692  0.107671
22.3451  0.350435
22.4211  0.439364
22.497  0.416086
22.5729  0.13586
22.6489  -0.326924
22.7248  -0.26962
22.8008  0.259769
22.8767  0.615916
22.9527  0.523835
23.0286  0.133407
23.1046  0.12528
23.1805  0.0799155
23.2565  -0.0747711
23.3324  0.237812
23.4083  0.305804
23.4843  -0.000689815
23.5602  0.337412
23.6362  0.198422
23.7121  0.183706
23.7881  0.59622
23.864  0.654458
23.94  -0.048669
24.0159  0.0869276
24.0918  0.169528
24.1678  -0.0103769
24.2437  -0.0254312

File: 3_ReMoB2_10pGPa_260psi_P1_C4_D1w_035.dat
2.82731  0.417695
2.90325  0.423694
2.9792  0.877006
3.05514  1.26893
3.13109  2.00155
3.20703  1.24543
3.28298  2.28173
3.35892  3.79534
3.43487  10.2693
3.51081  4.35579
3.58676  1.30362
3.6627  0.89644
3.73864  1.66985
3.81459  1.11932
3.89053  1.39244
3.96648  1.73793
4.04242  0.144146
4.11837  0.705808
4.19431  0.995541
4.27026  1.12673
4.3462  0.867817
4.42215  0.803668
4.49809  0.0644499
4.57404  0.659728
4.64998  0.197714
4.72593  1.4238
4.80187  0.995819
4.87782  0.0900187
4.95376  0.491812
5.02971  0.436495
5.10565  0.868633
5.1816  -0.185718
5.25754  0.91597
5.33349  1.95989
5.40943  1.63269
5.48537  0.18749
5.56132  1.05521
5.63726  1.50459
5.71321  1.47786
5.78915  0.0509724
5.8651  1.13004
5.94104  1.08352
6.01699  0.522731
6.09293  0.873275
6.16888  0.670954
6.24482  0.675126
6.32077  0.982347
6.39671  0.384762
6.47266  3.98626
6.5486  3.44551
6.62455  2.08422
6.70049  2.94326
6.77644  13.866
6.85238  32.6836
6.92833  28.0896
7.00427  11.5428
7.08021  2.87752
7.15616  1.75103
7.2321  0.612683
7.30805  -0.0521074
7.38399  0.705352
7.45994  0.510544
7.53588  0.782422
7.61183  0.346953
7.68777  0.608634
7.76372  1.08149
7.83966  -0.0532737
7.91561  0.353097
7.99155  0.551264
8.0675  0.357066
8.14344  0.126754
8.21939  0.3769
8.29533  0.903008
8.37128  0.287823
8.44722  0.358193
8.52317  0.877391
8.59911  0.0249699
8.67506  0.176633
8.751  -0.148544
8.82694  -0.12619
8.90289  -0.045732
8.97883  2.16872
9.05478  17.0539
9.13072  129.091
9.20667  552.966
9.28261  1123.92
9.35856  1397.09
9.4345  716.131
9.51045  264.569
9.58639  151.333
9.66234  46.0576
9.73828  11.4575
9.81423  0.934522
9.89017  0.140944
9.96612  5.9616
10.0421  11.8064
10.118  28.5352
10.194  33.8136
10.2699  83.4184
10.3458  70.3244
10.4218  64.6139
10.4977  37.3401
10.5737  24.6215
10.6496  20.217
10.7256  27.6781
10.8015  49.8085
10.8775  75.0903
10.9534  43.7183
11.0293  13.3299
11.1053  3.52884
11.1812  1.82328
11.2572  1.14525
11.3331  4.8958
11.4091  5.58551
11.485  0.807503
11.561  -0.316117
11.6369  -0.460915
11.7128  -0.0857318
11.7888  0.581027
11.8647  0.746728
11.9407  3.6195
12.0166  7.49739
12.0926  25.3094
12.1685  57.294
12.2445  51.3898
12.3204  30.1768
12.3963  19.6557
12.4723  14.1838
12.5482  14.7434
12.6242  14.9382
12.7001  10.9866
12.7761  13.208
12.852  22.4912
12.928  34.318
13.0039  26.1415
13.0799  14.1028
13.1558  7.03748
13.2317  4.12906
13.3077  1.75627
13.3836  0.84791
13.4596  -0.322434
13.5355  0.77834
13.6115  1.95778
13.6874  3.3316
13.7634  4.05685
13.8393  3.65852
13.9152  2.40455
13.9912  0.754108
14.0671  0.502872
14.1431  0.112959
14.219  0.162684
14.295  -0.0246439
14.3709  0.70125
14.4469  0.85603
14.5228  0.363869
14.5987  0.455109
14.6747  0.742175
14.7506  0.427741
14.8266  0.701661
14.9025  -0.98586
14.9785  -0.192772
15.0544  0.719809
15.1304  1.28451
15.2063  3.11244
15.2823  5.64166
15.3582  9.64882
15.4341  13.135
15.5101  23.6983
15.586  61.0462
15.662  129.471
15.7379  67.2249
15.8139  37.2665
15.8898  48.5912
15.9658  32.7628
16.0417  17.9401
16.1176  11.9831
16.1936  9.04699
16.2695  7.63627
16.3455  4.99471
16.4214  2.87317
16.4974  1.78003
16.5733  0.68878
16.6493  0.614489
16.7252  0.0994309
16.8011  -0.249732
16.8771  -0.17091
16.953  0.179345
17.029  0.696681
17.1049  3.07908
17.1809  9.01573
17.2568  21.4565
17.3328  37.6404
17.4087  50.9618
17.4846  61.5918
17.5606  62.8285
17.6365  51.6067
17.7125  33.8992
17.7884  20.9106
17.8644  10.8873
17.9403  3.69955
18.0163  1.04957
18.0922  -0.048626
18.1682  1.28462
18.2441  7.34171
18.32  24.4662
18.396  41.5928
18.4719  79.5679
18.5479  42.3656
18.6238  26.4443
18.6998  18.4015
18.7757  7.77688
18.8517  4.30017
18.9276  10.0492
19.0035  28.1555
19.0795  65.6846
19.1554  76.9365
19.2314  59.0397
19.3073  26.6571
19.3833  26.4538
19.4592  44.1127
19.5352  72.4662
19.6111  119.364
19.687  46.8203
19.763  3.74729
19.8389  3.68355
19.9149  5.10695
19.9908  8.65706
20.0668  15.7295
20.1427  27.9451
20.2187  36.1947
20.2946  52.635
20.3706  64.2732
20.4465  66.6491
20.5224  62.5182
20.5984  49.2922
20.6743  40.9603
20.7503  37.0759
20.8262  37.7354
20.9022  38.2947
20.9781  23.0929
21.0541  20.4512
21.13  41.4139
21.2059  39.7978
21.2819  35.0323
21.3578  26.9056
21.4338  17.8133
21.5097  0.238629
21.5857  -0.783303
21.6616  -0.23603
21.7376  0.566674
21.8135  0.627485
21.8894  0.251619
21.9654  0.260805
22.0413  -0.13769
22.1173  0.0546597
22.1932  -0.265246
22.2692  0.0457066
22.3451  0.329867
22.4211  0.279888
22.497  -0.036283
22.5729  0.298598
22.6489  0.236151
22.7248  -0.1025
22.8008  -0.024709
22.8767  -0.20947
22.9527  0.183141
23.0286  0.324379
23.1046  0.305748
23.1805  0.121064
23.2565  -0.0099483
23.3324  0.0321712
23.4083  0.309554
23.4843  0.417897
23.5602  0.0937332
23.6362  0.0367272
23.7121  0.361943
23.7881  0.148275
23.864  0.0340075
23.94  0.265729
24.0159  0.0601541
24.0918  0.290793
24.1678  -0.0210991
24.2437  -0.0600464

File: 4_ReMoB2_15pGPa_295psi_P1_C4_D1w_041.dat
2.82731  0.655526
2.90325  0.282692
2.9792  1.35515
3.05514  0.365191
3.13109  1.69776
3.20703  1.54642
3.28298  3.24159
3.35892  6.86678
3.43487  26.9596
3.51081  15.6964
3.58676  4.09924
3.6627  2.09885
3.73864  0.801386
3.81459  0.635215
3.89053  0.372009
3.96648  0.958526
4.04242  0.41466
4.11837  1.08216
4.19431  1.068
4.27026  0.465821
4.3462  0.129679
4.42215  0.0763159
4.49809  0.405519
4.57404  0.754997
4.64998  0.69596
4.72593  0.807334
4.80187  0.57035
4.87782  1.0759
4.95376  1.01466
5.02971  0.476425
5.10565  1.01732
5.1816  0.227482
5.25754  1.6099
5.33349  1.61286
5.40943  0.629292
5.48537  0.19614
5.56132  1.79295
5.63726  0.928225
5.71321  1.32773
5.78915  0.576937
5.8651  1.16294
5.94104  0.771844
6.01699  1.04454
6.09293  -0.134346
6.16888  1.54132
6.24482  0.444006
6.32077  0.72889
6.39671  0.364504
6.47266  3.78224
6.5486  12.1647
6.62455  10.0178
6.70049  7.25947
6.77644  29.2041
6.85238  95.4903
6.92833  108.555
7.00427  54.4435
7.08021  18.8056
7.15616  5.8518
7.2321  1.10982
7.30805  0.250991
7.38399  0.289599
7.45994  1.4194
7.53588  2.11678
7.61183  1.76135
7.68777  0.813589
7.76372  1.10581
7.83966  0.159117
7.91561  0.551297
7.99155  0.806671
8.0675  0.464609
8.14344  0.579606
8.21939  0.0139179
8.29533  0.475467
8.37128  -0.0737595
8.44722  1.20757
8.52317  1.0153
8.59911  -0.114688
8.67506  -0.0239351
8.751  0.566133
8.82694  -0.135021
8.90289  0.190877
8.97883  2.7279
9.05478  14.1924
9.13072  77.3969
9.20667  306.396
9.28261  784.75
9.35856  1218.54
9.4345  775.922
9.51045  422.335
9.58639  220.548
9.66234  90.2772
9.73828  31.4572
9.81423  7.97551
9.89017  -0.0884105
9.96612  1.98124
10.0421  5.09826
10.118  1.05775
10.194  5.53402
10.2699  29.1868
10.3458  53.0993
10.4218  40.1722
10.4977  25.0949
10.5737  23.3973
10.6496  35.4097
10.7256  70.1757
10.8015  140.612
10.8775  191.159
10.9534  161.215
11.0293  66.738
11.1053  26.6061
11.1812  9.72291
11.2572  6.01088
11.3331  6.85939
11.4091  9.13418
11.485  4.05831
11.561  0.0707167
11.6369  -0.888044
11.7128  -1.56173
11.7888  -0.960131
11.8647  0.725155
11.9407  1.52726
12.0166  3.36556
12.0926  11.5076
12.1685  28.6642
12.2445  52.9944
12.3204  72.0503
12.3963  64.2891
12.4723  42.3254
12.5482  26.0744
12.6242  25.3966
12.7001  33.0289
12.7761  43.0209
12.852  56.4171
12.928  83.058
13.0039  128.66
13.0799  166.164
13.1558  117.902
13.2317  59.4911
13.3077  25.9301
13.3836  9.61013
13.4596  2.2225
13.5355  0.327959
13.6115  1.03902
13.6874  9.12621
13.7634  17.2795
13.8393  18.3229
13.9152  12.449
13.9912  6.11257
14.0671  3.13028
14.1431  1.08761
14.219  -0.569063
14.295  -0.548377
14.3709  0.0421105
14.4469  0.479145
14.5228  0.204017
14.5987  0.164018
14.6747  0.224257
14.7506  0.220735
14.8266  -0.0307449
14.9025  -0.489462
14.9785  0.586892
15.0544  1.01437
15.1304  1.00853
15.2063  1.85649
15.2823  1.24886
15.3582  3.84299
15.4341  8.25329
15.5101  16.5312
15.586  34.5651
15.662  61.7093
15.7379  71.8542
15.8139  55.768
15.8898  37.767
15.9658  28.7345
16.0417  26.0602
16.1176  25.0416
16.1936  19.8766
16.2695  12.8767
16.3455  7.89609
16.4214  4.54984
16.4974  2.78153
16.5733  1.73658
16.6493  1.80353
16.7252  -0.136868
16.8011  -0.283604
16.8771  -0.970231
16.953  -0.850214
17.029  -0.502518
17.1049  0.933698
17.1809  6.63387
17.2568  19.8705
17.3328  43.3781
17.4087  74.0668
17.4846  107.337
17.5606  140.578
17.6365  169.355
17.7125  145.891
17.7884  95.1768
17.8644  56.2605
17.9403  29.9348
18.0163  15.1395
18.0922  7.95935
18.1682  6.28656
18.2441  9.71059
18.32  20.169
18.396  40.7281
18.4719  69.8
18.5479  103.677
18.6238  109.711
18.6998  87.2442
18.7757  60.2766
18.8517  36.6027
18.9276  18.7928
19.0035  12.1977
19.0795  12.9072
19.1554  15.4842
19.2314  19.2233
19.3073  23.2271
19.3833  21.3878
19.4592  15.5977
19.5352  11.8449
19.6111  7.05799
19.687  2.91976
19.763  0.780185
19.8389  0.204205
19.9149  1.22567
19.9908  3.92521
20.0668  6.22934
20.1427  8.70026
20.2187  11.203
20.2946  12.841
20.3706  15.3993
20.4465  18.8784
20.5224  22.8909
20.5984  28.4745
20.6743  30.0501
20.7503  27.7905
20.8262  24.5963
20.9022  20.5154
20.9781  16.505
21.0541  15.1462
21.13  19.0756
21.2059  24.6276
21.2819  26.1279
21.3578  17.6003
21.4338  8.85188
21.5097  3.66
21.5857  0.607915
21.6616  0.0029038
21.7376  0.165064
21.8135  0.138359
21.8894  -0.438192
21.9654  -0.1964
22.0413  0.0820614
22.1173  -0.00237698
22.1932  0.155592
22.2692  0.230919
22.3451  0.230707
22.4211  0.0556067
22.497  -0.0610468
22.5729  -0.134321
22.6489  -0.218468
22.7248  0.0155377
22.8008  0.328169
22.8767  0.315964
22.9527  0.240839
23.0286  0.187464
23.1046  0.256742
23.1805  -0.000776045
23.2565  0.170362
23.3324  -0.110886
23.4083  0.204117
23.4843  0.356018
23.5602  0.0127261
23.6362  0.205974
23.7121  0.138842
23.7881  0.484554
23.864  0.32947
23.94  0.505132
24.0159  0.20544
24.0918  -0.0123268
24.1678  0.0911361
24.2437  0.135771

File: 5_ReMoB2_20pGPa_325psi_P1_C4_D1w_047.dat
2.82731  0.408169
2.90325  0.742615
2.9792  1.05649
3.05514  0.174796
3.13109  1.14675
3.20703  2.01408
3.28298  2.58706
3.35892  4.9443
3.43487  22.0342
3.51081  10.629
3.58676  2.03514
3.6627  2.29197
3.73864  0.010521
3.81459  0.758924
3.89053  1.0859
3.96648  1.68543
4.04242  0.615691
4.11837  0.81151
4.19431  0.634653
4.27026  0.728075
4.3462  -0.0873238
4.42215  -0.0160275
4.49809  0.311624
4.57404  -0.00624682
4.64998  0.414815
4.72593  0.773166
4.80187  1.06295
4.87782  0.658599
4.95376  0.0443907
5.02971  1.535
5.10565  1.21872
5.1816  1.04608
5.25754  0.798216
5.33349  0.584858
5.40943  1.54307
5.48537  -0.168982
5.56132  1.40015
5.63726  1.2122
5.71321  1.25862
5.78915  1.00847
5.8651  1.23323
5.94104  0.750084
6.01699  0.373748
6.09293  -0.16784
6.16888  0.521657
6.24482  0.862664
6.32077  0.73337
6.39671  0.73538
6.47266  2.41236
6.5486  17.8789
6.62455  10.0069
6.70049  4.9331
6.77644  13.7366
6.85238  80.954
6.92833  113.572
7.00427  37.6534
7.08021  9.17249
7.15616  2.6239
7.2321  0.715083
7.30805  0.724166
7.38399  0.372939
7.45994  0.530121
7.53588  0.293869
7.61183  1.06075
7.68777  1.34844
7.76372  0.951694
7.83966  0.225011
7.91561  0.350202
7.99155  0.628855
8.0675  0.261703
8.14344  0.467128
8.21939  -0.0788658
8.29533  0.718974
8.37128  0.0750606
8.44722  0.302148
8.52317  0.602957
8.59911  0.219319
8.67506  0.34656
8.751  0.0532783
8.82694  -0.283809
8.90289  -0.24585
8.97883  0.375983
9.05478  4.50968
9.13072  19.2158
9.20667  107.91
9.28261  653.286
9.35856  2270.67
9.4345  1961.2
9.51045  1115.84
9.58639  493.164
9.66234  141.606
9.73828  42.2077
9.81423  12.9866
9.89017  2.07777
9.96612  0.122982
10.0421  4.24894
10.118  5.61865
10.194  6.65361
10.2699  18.5816
10.3458  124.16
10.4218  168.04
10.4977  73.6767
10.5737  54.6578
10.6496  45.8233
10.7256  40.8626
10.8015  44.4084
10.8775  50.0368
10.9534  42.9665
11.0293  24.9951
11.1053  11.6126
11.1812  4.89358
11.2572  1.73747
11.3331  1.45882
11.4091  4.18854
11.485  3.33955
11.561  0.0991127
11.6369  0.0398866
11.7128  -0.981364
11.7888  -0.369347
11.8647  -0.114716
11.9407  0.478021
12.0166  1.89083
12.0926  4.18967
12.1685  9.12652
12.2445  25.2423
12.3204  48.0672
12.3963  59.755
12.4723  48.8884
12.5482  35.0211
12.6242  29.5529
12.7001  25.7716
12.7761  23.288
12.852  21.8609
12.928  21.0593
13.0039  21.4116
13.0799  21.0738
13.1558  19.1838
13.2317  14.5145
13.3077  8.57458
13.3836  3.07204
13.4596  0.36178
13.5355  0.243797
13.6115  1.65219
13.6874  4.41499
13.7634  10.0005
13.8393  14.5083
13.9152  14.1442
13.9912  9.72615
14.0671  5.78298
14.1431  3.30149
14.219  1.70568
14.295  0.684645
14.3709  1.24665
14.4469  0.12121
14.5228  0.122631
14.5987  -0.273747
14.6747  0.141902
14.7506  -0.388177
14.8266  -0.156371
14.9025  0.299642
14.9785  -0.193594
15.0544  0.153663
15.1304  1.32128
15.2063  1.78942
15.2823  2.87759
15.3582  5.69894
15.4341  7.51816
15.5101  7.852
15.586  7.46078
15.662  9.24692
15.7379  15.21
15.8139  32.4785
15.8898  60.1933
15.9658  50.6891
16.0417  28.5483
16.1176  24.2751
16.1936  21.8767
16.2695  18.2061
16.3455  11.7765
16.4214  9.13222
16.4974  5.87306
16.5733  3.47036
16.6493  0.800585
16.7252  0.284358
16.8011  -0.000828651
16.8771  -0.155329
16.953  -0.521233
17.029  -0.839788
17.1049  -0.126004
17.1809  1.85255
17.2568  4.28544
17.3328  12.3967
17.4087  59.9003
17.4846  355.387
17.5606  333.436
17.6365  168.204
17.7125  155.037
17.7884  77.9591
17.8644  39.3845
17.9403  21.8398
18.0163  10.8904
18.0922  5.77532
18.1682  3.27213
18.2441  2.60725
18.32  3.4585
18.396  6.76871
18.4719  19.7867
18.5479  61.4749
18.6238  165.021
18.6998  177.607
18.7757  114.37
18.8517  58.6019
18.9276  23.5058
19.0035  7.18969
19.0795  1.82269
19.1554  3.64356
19.2314  14.2725
19.3073  37.5194
19.3833  57.2996
19.4592  43.8384
19.5352  33.858
19.6111  24.3125
19.687  13.2969
19.763  6.64203
19.8389  6.09258
19.9149  7.36272
19.9908  9.99855
20.0668  11.2365
20.1427  12.0869
20.2187  13.7442
20.2946  15.8281
20.3706  19.0228
20.4465  24.6709
20.5224  30.2772
20.5984  35.8671
20.6743  44.2754
20.7503  49.0813
20.8262  40.083
20.9022  28.4215
20.9781  17.3534
21.0541  9.90497
21.13  4.56032
21.2059  2.76001
21.2819  3.96018
21.3578  8.43004
21.4338  8.49304
21.5097  9.59963
21.5857  12.6571
21.6616  3.06039
21.7376  0.168782
21.8135  -0.181946
21.8894  -0.544552
21.9654  -0.0868614
22.0413  0.279624
22.1173  0.118983
22.1932  -0.00424216
22.2692  0.187717
22.3451  0.389942
22.4211  -0.0497319
22.497  0.366804
22.5729  -0.198301
22.6489  0.450982
22.7248  0.208977
22.8008  0.372006
22.8767  0.119293
22.9527  0.297828
23.0286  0.445154
23.1046  -0.1156
23.1805  0.0354148
23.2565  0.249733
23.3324  -0.0074321
23.4083  0.218681
23.4843  0.0562362
23.5602  0.135357
23.6362  0.436957
23.7121  0.0552868
23.7881  0.420992
23.864  0.16458
23.94  -0.0117588
24.0159  0.131177
24.0918  -0.165684
24.1678  0.230182
24.2437  0.088074