Folder: remob2/data/processed/Run2_XRD

Note: data/processed/Run2_XRD/README.md
Xray data files from Run 2.
The pressures in the file names are rough estimates of the pressure determined during the measurement process.
For more exact pressures go to processed/HPXRDrefinement/refinements.pdf.
In the file names "C1" indicates the measurements were performed for postion 1.
The location of position 1 for Run 2 is shown in processed/Measurement_details.pdf.

File: 1_ReMoB2_0bars_0p2GPa_S_P1_C1_D1w_010.dat
2.93393  0.468853
3.00995  0.379552
3.08596  1.07829
3.16197  1.48489
3.23799  1.34254
3.314  2.50774
3.39001  14.4607
3.46603  5.22625
3.54204  1.73317
3.61805  1.3334
3.69407  0.936603
3.77008  0.975194
3.84609  0.936867
3.9221  1.44188
3.99812  1.1386
4.07413  0.543142
4.15014  0.790887
4.22616  0.329096
4.30217  1.23136
4.37818  0.687802
4.4542  0.784481
4.53021  0.0208692
4.60622  0.577013
4.68224  0.387826
4.75825  0.164182
4.83426  0.576217
4.91027  0.929034
4.98629  0.0629536
5.0623  0.141721
5.13831  0.95852
5.21433  1.13574
5.29034  1.09269
5.36635  1.00437
5.44237  -0.14723
5.51838  0.638917
5.59439  0.852115
5.67041  1.83973
5.74642  0.396654
5.82243  0.626093
5.89844  0.174363
5.97446  0.569912
6.05047  0.106535
6.12648  0.729172
6.2025  2.53992
6.27851  6.82852
6.35452  0.947738
6.43054  9.12558
6.50655  2.36001
6.58256  0.417407
6.65857  0.812162
6.73459  10.4548
6.8106  41.854
6.88661  16.5124
6.96263  1.54387
7.03864  0.374545
7.11465  0.395086
7.19067  0.000713313
7.26668  0.675551
7.34269  0.200021
7.41871  0.372668
7.49472  0.279162
7.57073  0.173176
7.64674  0.0370921
7.72276  0.273025
7.79877  0.0995964
7.87478  0.0677343
7.9508  -0.125094
8.02681  1.11447
8.10282  0.329899
8.17884  0.713013
8.25485  0.830637
8.33086  1.00506
8.40688  0.54744
8.48289  0.741756
8.5589  0.510381
8.63491  0.296501
8.71093  0.118367
8.78694  0.757005
8.86295  1.17373
8.93897  1.81458
9.01498  11.6341
9.09099  107.378
9.16701  275.799
9.24302  133.557
9.31903  90.3506
9.39505  100.055
9.47106  26.5613
9.54707  3.61733
9.62308  1.0171
9.6991  0.651591
9.77511  -0.180432
9.85112  0.582622
9.92714  3.05736
10.0031  2.03007
10.0792  4.12745
10.1552  32.6578
10.2312  26.3482
10.3072  9.0981
10.3832  2.61089
10.4592  3.06468
10.5352  5.84466
10.6113  16.4514
10.6873  89.8674
10.7633  98.2301
10.8393  21.4114
10.9153  6.6985
10.9913  3.14761
11.0673  1.31095
11.1433  3.79614
11.2194  1.354
11.2954  1.31672
11.3714  0.783992
11.4474  0.00710276
11.5234  -0.233672
11.5994  -0.33084
11.6754  1.33402
11.7515  4.43117
11.8275  5.92025
11.9035  8.09293
11.9795  26.8551
12.0555  113.505
12.1315  101.175
12.2075  26.4048
12.2835  10.3158
12.3596  5.84342
12.4356  5.20003
12.5116  4.2729
12.5876  5.04263
12.6636  8.36645
12.7396  20.1981
12.8156  97.5272
12.8916  125.248
12.9677  45.9918
13.0437  9.37921
13.1197  3.17625
13.1957  1.11591
13.2717  1.06236
13.3477  2.20779
13.4237  0.14025
13.4998  0.594292
13.5758  4.57398
13.6518  10.1203
13.7278  4.64077
13.8038  0.99721
13.8798  0.00864082
13.9558  0.581819
14.0318  0.29098
14.1079  0.488874
14.1839  0.137706
14.2599  -0.204244
14.3359  0.991079
14.4119  1.62165
14.4879  0.909307
14.5639  1.11104
14.6399  0.477653
14.716  0.847631
14.792  0.575699
14.868  1.35888
14.944  1.87795
15.02  2.12704
15.096  2.12614
15.172  2.48788
15.2481  3.30438
15.3241  7.20808
15.4001  26.3048
15.4761  49.8984
15.5521  34.5311
15.6281  10.2907
15.7041  14.5969
15.7801  45.374
15.8562  40.0296
15.9322  9.64679
16.0082  3.5431
16.0842  2.82032
16.1602  3.22868
16.2362  2.26763
16.3122  2.48086
16.3882  4.75368
16.4643  4.18674
16.5403  3.95419
16.6163  1.54905
16.6923  2.29883
16.7683  2.43928
16.8443  2.67714
16.9203  3.77965
16.9964  5.63367
17.0724  11.8482
17.1484  33.7177
17.2244  64.2627
17.3004  45.4478
17.3764  32.6576
17.4524  24.3738
17.5284  13.6394
17.6045  10.2308
17.6805  8.52524
17.7565  8.20758
17.8325  8.58304
17.9085  10.339
17.9845  9.2578
18.0605  7.76293
18.1365  8.04474
18.2126  18.2908
18.2886  39.8289
18.3646  28.8942
18.4406  13.9443
18.5166  4.61747
18.5926  0.543311
18.6686  -0.529684
18.7447  3.95327
18.8207  25.7432
18.8967  18.9306
18.9727  7.06557
19.0487  10.1664
19.1247  19.1487
19.2007  10.6014
19.2767  2.48523
19.3528  -0.2772
19.4288  -0.343505
19.5048  -0.077642
19.5808  0.125648
19.6568  0.404127
19.7328  0.377493
19.8088  1.5375
19.8848  5.02724
19.9609  4.6121
20.0369  0.689194
20.1129  -0.0114587
20.1889  -0.03255
20.2649  0.417051
20.3409  0.99109
20.4169  1.96396
20.493  0.816151
20.569  0.435464
20.645  0.0723975
20.721  -0.193167
20.797  0.418894
20.873  1.17398
20.949  9.44221
21.025  6.16419
21.1011  0.120478
21.1771  0.276132
21.2531  0.13252
21.3291  0.0873421
21.4051  0.306139
21.4811  0.0195478
21.5571  0.0975183
21.6331  0.0470714
21.7092  -0.0181275
21.7852  0.273701
21.8612  -0.10239
21.9372  0.0922905
22.0132  0.0733617
22.0322  -0.0210754

File: 2_ReMoB2_355bars_6p1GPa_S_P1_C1_D1w_019.dat
2.93393  0.747018
3.00995  -0.149987
3.08596  1.19358
3.16197  0.601465
3.23799  2.24893
3.314  3.34476
3.39001  15.6918
3.46603  11.7998
3.54204  2.70785
3.61805  1.5335
3.69407  1.77459
3.77008  0.219096
3.84609  1.33976
3.9221  0.896834
3.99812  1.18639
4.07413  1.14238
4.15014  1.11824
4.22616  0.198428
4.30217  0.430089
4.37818  0.00481597
4.4542  0.461687
4.53021  0.797943
4.60622  0.303385
4.68224  0.421063
4.75825  0.588903
4.83426  0.4579
4.91027  0.157374
4.98629  1.3588
5.0623  0.158425
5.13831  0.703056
5.21433  0.507022
5.29034  0.33905
5.36635  0.290355
5.44237  -0.00972975
5.51838  0.238911
5.59439  1.92948
5.67041  3.59823
5.74642  2.06914
5.82243  0.43017
5.89844  0.275747
5.97446  1.06849
6.05047  -0.117548
6.12648  0.646509
6.2025  3.50154
6.27851  15.0885
6.35452  5.40368
6.43054  8.68378
6.50655  13.054
6.58256  2.41359
6.65857  1.47291
6.73459  10.2912
6.8106  54.1569
6.88661  49.8388
6.96263  17.0871
7.03864  3.79472
7.11465  0.722157
7.19067  0.196087
7.26668  0.257919
7.34269  -0.177028
7.41871  0.0640353
7.49472  0.872312
7.57073  1.34466
7.64674  1.16755
7.72276  0.145513
7.79877  0.458006
7.87478  0.152602
7.9508  0.538575
8.02681  0.52187
8.10282  0.0743456
8.17884  0.00425244
8.25485  0.773399
8.33086  0.301067
8.40688  0.245733
8.48289  0.333419
8.5589  0.286878
8.63491  -0.161548
8.71093  0.0270641
8.78694  0.566049
8.86295  0.795822
8.93897  2.98703
9.01498  19.2713
9.09099  131.102
9.16701  474.787
9.24302  397.46
9.31903  280.859
9.39505  221.325
9.47106  104.56
9.54707  37.014
9.62308  10.8131
9.6991  3.26941
9.77511  0.228866
9.85112  -0.518522
9.92714  2.66723
10.0031  7.58672
10.0792  7.37931
10.1552  27.3887
10.2312  48.8578
10.3072  30.7794
10.3832  18.3234
10.4592  13.7217
10.5352  15.1844
10.6113  24.0908
10.6873  50.193
10.7633  66.6398
10.8393  44.8894
10.9153  21.3063
10.9913  7.42429
11.0673  3.74623
11.1433  4.817
11.2194  0.935474
11.2954  -0.00544265
11.3714  0.374867
11.4474  0.00186384
11.5234  -0.710777
11.5994  -0.238506
11.6754  0.833304
11.7515  2.80043
11.8275  5.66533
11.9035  9.43619
11.9795  24.2264
12.0555  92.5635
12.1315  155.734
12.2075  111.246
12.2835  57.1431
12.3596  31.4727
12.4356  23.5049
12.5116  21.4177
12.5876  22.4959
12.6636  24.22
12.7396  30.672
12.8156  53.8993
12.8916  68.1636
12.9677  56.9652
13.0437  30.8048
13.1197  10.5784
13.1957  2.8083
13.2717  -0.192228
13.3477  0.78328
13.4237  -0.195121
13.4998  0.0447426
13.5758  2.70799
13.6518  7.08725
13.7278  11.1217
13.8038  4.61604
13.8798  3.4858
13.9558  1.39145
14.0318  0.100612
14.1079  -0.22477
14.1839  -0.0710902
14.2599  0.492645
14.3359  0.401564
14.4119  0.574623
14.4879  0.538417
14.5639  0.785364
14.6399  0.0942539
14.716  0.773302
14.792  0.43807
14.868  0.185659
14.944  0.6054
15.02  0.927824
15.096  1.66563
15.172  1.92509
15.2481  2.74879
15.3241  4.11799
15.4001  11.166
15.4761  25.9681
15.5521  39.3561
15.6281  40.0872
15.7041  54.6275
15.7801  70.8529
15.8562  56.8834
15.9322  30.7796
16.0082  16.1413
16.0842  8.84167
16.1602  5.70623
16.2362  3.82856
16.3122  2.47176
16.3882  1.55761
16.4643  1.03824
16.5403  0.0816345
16.6163  0.347432
16.6923  1.03187
16.7683  0.732866
16.8443  0.843785
16.9203  1.75503
16.9964  5.11869
17.0724  15.7196
17.1484  56.8861
17.2244  75.066
17.3004  68.3985
17.3764  56.0477
17.4524  48.3897
17.5284  47.5586
17.6045  27.1179
17.6805  16.6558
17.7565  11.9102
17.8325  9.51277
17.9085  8.10089
17.9845  7.14893
18.0605  8.03801
18.1365  9.16634
18.2126  16.9629
18.2886  27.0532
18.3646  29.4795
18.4406  24.431
18.5166  13.8527
18.5926  4.64754
18.6686  0.160572
18.7447  4.68762
18.8207  11.3164
18.8967  13.8015
18.9727  12.4646
19.0487  8.67773
19.1247  5.06483
19.2007  6.88715
19.2767  3.18177
19.3528  0.60194
19.4288  -0.278067
19.5048  -0.296975
19.5808  0.0322665
19.6568  -0.00710055
19.7328  0.447948
19.8088  0.990588
19.8848  3.01098
19.9609  4.88527
20.0369  2.93415
20.1129  1.85795
20.1889  1.22392
20.2649  1.22404
20.3409  4.17988
20.4169  10.2116
20.493  11.827
20.569  7.15274
20.645  2.64062
20.721  1.03488
20.797  0.144282
20.873  0.398599
20.949  0.844353
21.025  2.8785
21.1011  2.03011
21.1771  0.296412
21.2531  0.29992
21.3291  -0.206043
21.4051  0.291533
21.4811  0.124044
21.5571  0.485959
21.6331  0.214809
21.7092  0.1313
21.7852  0.0119756
21.8612  0.000910935
21.9372  -0.249565
22.0132  0.258658
22.0322  -0.141057

File: 3_ReMoB2_400psi_13p8GPa_S_P1_C1_D1w_025.dat
2.93393  0.631559
3.00995  0.803658
3.08596  0.0418209
3.16197  1.7614
3.23799  1.65214
3.314  2.69815
3.39001  14.8325
3.46603  37.0289
3.54204  7.37339
3.61805  1.48967
3.69407  1.32188
3.77008  1.29675
3.84609  0.674316
3.9221  1.38913
3.99812  0.820286
4.07413  -0.0957007
4.15014  0.618304
4.22616  0.40481
4.30217  0.331364
4.37818  0.0207785
4.4542  0.585486
4.53021  0.578113
4.60622  0.558752
4.68224  0.351919
4.75825  0.527676
4.83426  0.38573
4.91027  0.305139
4.98629  0.185255
5.0623  0.187786
5.13831  0.170693
5.21433  0.254068
5.29034  1.39061
5.36635  0.258376
5.44237  0.0333296
5.51838  0.0051903
5.59439  1.86032
5.67041  8.75983
5.74642  10.7425
5.82243  4.54574
5.89844  2.05434
5.97446  1.37386
6.05047  1.29746
6.12648  0.843152
6.2025  4.19168
6.27851  17.7459
6.35452  39.9644
6.43054  10.332
6.50655  10.1505
6.58256  6.14976
6.65857  2.86784
6.73459  9.49397
6.8106  49.2137
6.88661  84.0529
6.96263  60.2805
7.03864  17.1703
7.11465  4.1116
7.19067  0.958279
7.26668  -0.118678
7.34269  0.568498
7.41871  1.01903
7.49472  -0.00863786
7.57073  0.74079
7.64674  1.2222
7.72276  1.27148
7.79877  0.432052
7.87478  0.488082
7.9508  0.403789
8.02681  0.896196
8.10282  0.801775
8.17884  0.400802
8.25485  0.243486
8.33086  0.186194
8.40688  0.496398
8.48289  0.664048
8.5589  0.9732
8.63491  -0.0777563
8.71093  0.0931392
8.78694  -0.0592763
8.86295  0.0608616
8.93897  3.02036
9.01498  16.8068
9.09099  88.5396
9.16701  335.323
9.24302  690.073
9.31903  475.776
9.39505  303.291
9.47106  264.793
9.54707  121.412
9.62308  35.1794
9.6991  9.5502
9.77511  1.75286
9.85112  -0.5335
9.92714  1.49675
10.0031  3.86801
10.0792  3.4632
10.1552  9.40583
10.2312  27.5504
10.3072  36.213
10.3832  29.0991
10.4592  22.0772
10.5352  17.3547
10.6113  21.7963
10.6873  34.0672
10.7633  48.6304
10.8393  46.722
10.9153  31.9559
10.9913  16.1104
11.0673  7.25095
11.1433  5.42771
11.2194  3.56647
11.2954  1.57315
11.3714  0.804841
11.4474  -0.174857
11.5234  -0.509216
11.5994  -0.450069
11.6754  -0.568822
11.7515  1.14988
11.8275  4.7175
11.9035  5.20166
11.9795  9.94577
12.0555  27.5797
12.1315  63.189
12.2075  91.2019
12.2835  80.4571
12.3596  60.8536
12.4356  38.5572
12.5116  29.7409
12.5876  27.1123
12.6636  24.874
12.7396  26.8991
12.8156  33.2272
12.8916  46.0144
12.9677  60.0393
13.0437  54.4454
13.1197  27.8429
13.1957  11.1117
13.2717  3.93715
13.3477  1.58552
13.4237  0.04872
13.4998  -0.356655
13.5758  1.73963
13.6518  5.57217
13.7278  7.33071
13.8038  6.12641
13.8798  5.35746
13.9558  4.87624
14.0318  2.41067
14.1079  0.942933
14.1839  0.545136
14.2599  -0.427946
14.3359  0.426997
14.4119  0.544791
14.4879  0.852935
14.5639  0.578378
14.6399  0.510879
14.716  0.203858
14.792  -0.141547
14.868  0.00325465
14.944  0.260174
15.02  0.77894
15.096  2.07236
15.172  2.19362
15.2481  2.94203
15.3241  4.37807
15.4001  7.31539
15.4761  14.4991
15.5521  19.3977
15.6281  25.4175
15.7041  29.9706
15.7801  32.965
15.8562  35.6493
15.9322  29.4588
16.0082  20.9362
16.0842  15.3018
16.1602  10.2162
16.2362  6.0555
16.3122  4.02201
16.3882  2.33659
16.4643  1.32117
16.5403  1.28277
16.6163  0.377495
16.6923  0.180238
16.7683  0.0568658
16.8443  0.834794
16.9203  1.36087
16.9964  2.93266
17.0724  8.2506
17.1484  20.118
17.2244  36.4682
17.3004  53.5745
17.3764  57.1339
17.4524  55.2567
17.5284  50.694
17.6045  42.8659
17.6805  33.5022
17.7565  23.6778
17.8325  16.0611
17.9085  11.9335
17.9845  10.2164
18.0605  10.9902
18.1365  7.55279
18.2126  8.58623
18.2886  11.5512
18.3646  14.4319
18.4406  15.8717
18.5166  14.6561
18.5926  9.77754
18.6686  5.10502
18.7447  0.264612
18.8207  0.057175
18.8967  4.03073
18.9727  6.77259
19.0487  3.50842
19.1247  5.42868
19.2007  15.8494
19.2767  35.0783
19.3528  25.947
19.4288  11.9627
19.5048  2.46669
19.5808  0.273251
19.6568  -0.357003
19.7328  -0.450469
19.8088  0.16125
19.8848  0.276563
19.9609  0.657791
20.0369  1.00589
20.1129  0.613654
20.1889  0.967074
20.2649  0.681749
20.3409  0.675163
20.4169  0.912406
20.493  1.53996
20.569  1.54159
20.645  1.40049
20.721  1.1712
20.797  0.180399
20.873  0.0823803
20.949  -0.140453
21.025  0.356379
21.1011  0.41977
21.1771  0.771749
21.2531  0.676037
21.3291  0.0957045
21.4051  -0.00907133
21.4811  0.198585
21.5571  0.28032
21.6331  0.190073
21.7092  -0.0130871
21.7852  0.0220332
21.8612  0.196623
21.9372  -0.132344
22.0132  0.267802
22.0322  -0.141944

File: 4_ReMoB2_430psi_23p4GPa_S_P1_C1_D1w_031.dat
2.93393  0.66619
3.00995  -0.162729
3.08596  0.735277
3.16197  1.21908
3.23799  1.72817
3.314  2.48366
3.39001  7.50994
3.46603  46.1025
3.54204  22.8483
3.61805  2.46219
3.69407  0.615556
3.77008  0.901724
3.84609  1.30299
3.9221  0.33275
3.99812  1.41794
4.07413  -0.175088
4.15014  1.6579
4.22616  0.812771
4.30217  0.54982
4.37818  0.509949
4.4542  0.41337
4.53021  -0.0310153
4.60622  -0.0248945
4.68224  0.69088
4.75825  1.31098
4.83426  0.0380465
4.91027  0.588961
4.98629  0.704844
5.0623  0.460951
5.13831  0.284791
5.21433  0.337389
5.29034  0.699525
5.36635  0.994311
5.44237  0.907172
5.51838  0.401308
5.59439  0.347642
5.67041  2.89028
5.74642  10.1131
5.82243  6.74984
5.89844  2.08354
5.97446  1.96883
6.05047  0.478348
6.12648  1.1683
6.2025  1.36317
6.27851  6.20041
6.35452  31.104
6.43054  22.7683
6.50655  6.59085
6.58256  11.1885
6.65857  8.34105
6.73459  6.14113
6.8106  19.607
6.88661  72.0281
6.96263  139.784
7.03864  74.25
7.11465  15.7736
7.19067  3.18765
7.26668  0.551232
7.34269  0.396809
7.41871  0.270112
7.49472  -0.104986
7.57073  0.49552
7.64674  1.42137
7.72276  0.244411
7.79877  0.593006
7.87478  1.17783
7.9508  0.256256
8.02681  0.828944
8.10282  0.283204
8.17884  0.809746
8.25485  0.931676
8.33086  -0.223581
8.40688  0.548502
8.48289  0.202027
8.5589  0.353399
8.63491  0.532676
8.71093  0.0564325
8.78694  -0.0800689
8.86295  0.0957699
8.93897  1.31708
9.01498  5.51203
9.09099  21.5436
9.16701  75.4715
9.24302  231.047
9.31903  516.103
9.39505  455.211
9.47106  304.55
9.54707  245.808
9.62308  115.057
9.6991  37.8343
9.77511  12.589
9.85112  2.81484
9.92714  -0.0298086
10.0031  -0.607975
10.0792  0.145651
10.1552  1.28495
10.2312  5.28556
10.3072  18.2035
10.3832  29.1428
10.4592  32.0169
10.5352  33.4601
10.6113  28.1547
10.6873  29.1387
10.7633  37.2447
10.8393  48.2209
10.9153  53.8106
10.9913  43.6091
11.0673  27.296
11.1433  14.0746
11.2194  6.78187
11.2954  4.03082
11.3714  2.49397
11.4474  1.49348
11.5234  0.267293
11.5994  -0.686812
11.6754  -0.970658
11.7515  -0.670691
11.8275  0.324612
11.9035  2.09559
11.9795  6.37555
12.0555  9.4399
12.1315  16.749
12.2075  33.3259
12.2835  67.8877
12.3596  99.4594
12.4356  83.1341
12.5116  57.8011
12.5876  41.8537
12.6636  35.9734
12.7396  35.3934
12.8156  36.7578
12.8916  36.3379
12.9677  39.172
13.0437  45.0784
13.1197  49.8782
13.1957  46.4413
13.2717  29.6839
13.3477  11.3011
13.4237  2.94338
13.4998  0.452272
13.5758  -0.771857
13.6518  0.292336
13.7278  1.85166
13.8038  4.84703
13.8798  6.73417
13.9558  9.2575
14.0318  10.4109
14.1079  8.63684
14.1839  3.20725
14.2599  0.402066
14.3359  0.329893
14.4119  -0.235017
14.4879  -0.302208
14.5639  0.358574
14.6399  0.360509
14.716  0.991729
14.792  0.859796
14.868  0.756703
14.944  0.507458
15.02  0.215622
15.096  0.307748
15.172  0.708683
15.2481  1.70562
15.3241  1.73503
15.4001  2.47171
15.4761  4.55553
15.5521  7.96739
15.6281  14.2282
15.7041  19.479
15.7801  23.3527
15.8562  28.6807
15.9322  31.3201
16.0082  33.0352
16.0842  32.8611
16.1602  29.6445
16.2362  21.2275
16.3122  13.8492
16.3882  7.78062
16.4643  4.73082
16.5403  2.76388
16.6163  1.09963
16.6923  0.838268
16.7683  0.406697
16.8443  0.132116
16.9203  0.452973
16.9964  1.43569
17.0724  2.76217
17.1484  5.3974
17.2244  9.87854
17.3004  20.1424
17.3764  40.1104
17.4524  63.9433
17.5284  73.1115
17.6045  71.2525
17.6805  61.1697
17.7565  44.8002
17.8325  31.6509
17.9085  22.2115
17.9845  15.4414
18.0605  10.327
18.1365  7.5136
18.2126  6.38321
18.2886  5.99329
18.3646  6.59513
18.4406  8.39356
18.5166  11.5955
18.5926  13.2507
18.6686  12.8657
18.7447  9.93356
18.8207  4.76234
18.8967  1.47865
18.9727  -0.310265
19.0487  -0.270338
19.1247  3.0966
19.2007  5.99004
19.2767  6.64162
19.3528  12.0648
19.4288  24.2297
19.5048  20.8568
19.5808  9.66897
19.6568  2.57718
19.7328  0.673235
19.8088  -0.429523
19.8848  -0.0732489
19.9609  0.0123074
20.0369  0.252592
20.1129  0.617803
20.1889  1.56302
20.2649  1.67534
20.3409  2.11735
20.4169  1.27278
20.493  1.04018
20.569  0.828721
20.645  0.512626
20.721  0.81353
20.797  1.17371
20.873  0.768817
20.949  0.582873
21.025  0.252748
21.1011  -0.076014
21.1771  0.762141
21.2531  0.765817
21.3291  0.771195
21.4051  0.00775198
21.4811  0.245319
21.5571  0.0166721
21.6331  0.0677085
21.7092  0.227221
21.7852  -0.182505
21.8612  0.102399
21.9372  0.061196
22.0132  0.0211547
22.0322  -0.00974723

File: 5_ReMoB2_450psi_30p5GPa_S_P1_C1_D1w_037.dat
2.93393  0.458681
3.00995  0.454209
3.08596  1.17683
3.16197  0.797874
3.23799  1.04882
3.314  1.45895
3.39001  6.0197
3.46603  29.8284
3.54204  21.5902
3.61805  2.77302
3.69407  1.05924
3.77008  1.73586
3.84609  0.634297
3.9221  0.400991
3.99812  0.320104
4.07413  0.456797
4.15014  0.78038
4.22616  1.41813
4.30217  0.57458
4.37818  0.622614
4.4542  0.910542
4.53021  0.767881
4.60622  0.513183
4.68224  0.251768
4.75825  0.821136
4.83426  1.36113
4.91027  1.01808
4.98629  0.53369
5.0623  0.339634
5.13831  -0.0781939
5.21433  0.445843
5.29034  0.573594
5.36635  0.791318
5.44237  -0.00851631
5.51838  0.14592
5.59439  0.370219
5.67041  1.26564
5.74642  6.62762
5.82243  5.74735
5.89844  2.24245
5.97446  0.956169
6.05047  0.133615
6.12648  0.358918
6.2025  0.210895
6.27851  2.48387
6.35452  15.5206
6.43054  22.9101
6.50655  4.09297
6.58256  7.81424
6.65857  12.1116
6.73459  8.63668
6.8106  13.9124
6.88661  47.6737
6.96263  106.247
7.03864  89.6361
7.11465  23.2752
7.19067  4.35814
7.26668  2.01107
7.34269  0.316787
7.41871  0.642791
7.49472  0.647225
7.57073  -0.0966993
7.64674  0.103302
7.72276  0.913066
7.79877  0.509207
7.87478  0.625901
7.9508  0.513646
8.02681  0.582258
8.10282  0.0225156
8.17884  0.168577
8.25485  0.294476
8.33086  -0.0521548
8.40688  0.200158
8.48289  0.687018
8.5589  0.710307
8.63491  0.583034
8.71093  -0.0946537
8.78694  0.32656
8.86295  0.178143
8.93897  0.759386
9.01498  2.31692
9.09099  8.29383
9.16701  28.1943
9.24302  91.9656
9.31903  329.665
9.39505  755.335
9.47106  520.519
9.54707  310.726
9.62308  231.9
9.6991  92.9485
9.77511  29.4238
9.85112  9.09676
9.92714  2.01424
10.0031  -0.517607
10.0792  0.27429
10.1552  1.82131
10.2312  3.12097
10.3072  7.4948
10.3832  21.6551
10.4592  29.9679
10.5352  28.6013
10.6113  24.0828
10.6873  20.3204
10.7633  23.332
10.8393  28.9747
10.9153  34.463
10.9913  36.9177
11.0673  31.7537
11.1433  25.1175
11.2194  13.3145
11.2954  6.11146
11.3714  3.23017
11.4474  2.46251
11.5234  1.36286
11.5994  0.486736
11.6754  -0.176874
11.7515  -0.423658
11.8275  -1.31327
11.9035  0.520914
11.9795  2.51041
12.0555  7.47016
12.1315  11.5308
12.2075  15.7971
12.2835  28.4694
12.3596  57.9686
12.4356  89.9367
12.5116  81.3751
12.5876  57.7986
12.6636  42.3374
12.7396  36.1934
12.8156  35.0277
12.8916  34.4455
12.9677  34.8334
13.0437  37.5333
13.1197  43.7655
13.1957  53.9111
13.2717  59.8263
13.3477  37.6894
13.4237  14.0456
13.4998  3.86626
13.5758  -0.228848
13.6518  0.478017
13.7278  0.660652
13.8038  3.13052
13.8798  5.69254
13.9558  8.07106
14.0318  6.71839
14.1079  6.99089
14.1839  4.84374
14.2599  0.766102
14.3359  0.0452493
14.4119  -0.210624
14.4879  -0.0551283
14.5639  0.0356782
14.6399  0.288013
14.716  0.572316
14.792  0.214516
14.868  0.93997
14.944  0.673932
15.02  -0.0541766
15.096  0.206078
15.172  0.103741
15.2481  0.679859
15.3241  0.4044
15.4001  1.62251
15.4761  2.35859
15.5521  4.55098
15.6281  7.73811
15.7041  14.9198
15.7801  24.6825
15.8562  26.1917
15.9322  24.775
16.0082  26.24
16.0842  27.6377
16.1602  29.0336
16.2362  27.0346
16.3122  21.4592
16.3882  14.241
16.4643  8.84015
16.5403  5.29268
16.6163  2.93466
16.6923  1.99387
16.7683  0.982934
16.8443  0.945675
16.9203  0.500394
16.9964  0.438489
17.0724  0.656169
17.1484  1.6572
17.2244  3.42492
17.3004  6.29096
17.3764  12.1923
17.4524  23.9554
17.5284  41.221
17.6045  61.336
17.6805  76.5083
17.7565  75.6753
17.8325  57.6757
17.9085  41.0353
17.9845  29.3346
18.0605  20.4678
18.1365  13.3691
18.2126  8.14012
18.2886  6.13481
18.3646  4.47223
18.4406  4.60317
18.5166  4.69873
18.5926  5.63021
18.6686  8.5804
18.7447  9.34896
18.8207  8.92224
18.8967  6.86553
18.9727  4.31936
19.0487  1.02199
19.1247  -0.76354
19.2007  -0.290212
19.2767  2.36326
19.3528  5.39537
19.4288  8.01411
19.5048  19.3475
19.5808  28.1764
19.6568  20.7338
19.7328  8.5406
19.8088  3.44514
19.8848  1.15361
19.9609  0.107444
20.0369  0.0974542
20.1129  -0.104993
20.1889  0.0980264
20.2649  0.193936
20.3409  0.678665
20.4169  0.666321
20.493  0.222246
20.569  0.0520356
20.645  0.0176017
20.721  0.411829
20.797  0.59299
20.873  0.847035
20.949  0.688935
21.025  0.4912
21.1011  0.174857
21.1771  0.237957
21.2531  0.279845
21.3291  0.159255
21.4051  0.282309
21.4811  0.16402
21.5571  0.19042
21.6331  0.146814
21.7092  0.0122455
21.7852  0.0157648
21.8612  -0.133671
21.9372  0.132401
22.0132  -0.139985
22.0322  0.0892365