Folder: remob2/data/processed/Run2_XRD (part 3)

File: 11_ReMoB2_550psi_noRuby_S_P1_C1_D1w_073.dat
2.93393  0.472962
3.00995  -0.0947123
3.08596  1.40163
3.16197  0.256265
3.23799  1.47628
3.314  0.988981
3.39001  3.10227
3.46603  9.12639
3.54204  24.2586
3.61805  5.26664
3.69407  2.38167
3.77008  1.39844
3.84609  1.59238
3.9221  1.00702
3.99812  0.906493
4.07413  1.11179
4.15014  1.08936
4.22616  0.311515
4.30217  0.45193
4.37818  0.426714
4.4542  0.767459
4.53021  1.1681
4.60622  0.657843
4.68224  1.28723
4.75825  0.167665
4.83426  0.283699
4.91027  0.540687
4.98629  0.00846925
5.0623  1.04827
5.13831  0.553845
5.21433  0.493481
5.29034  0.111804
5.36635  0.516464
5.44237  -0.182338
5.51838  0.661759
5.59439  -0.206929
5.67041  0.476277
5.74642  1.15628
5.82243  2.43068
5.89844  1.29659
5.97446  0.556891
6.05047  0.745104
6.12648  0.927862
6.2025  -0.328592
6.27851  1.10234
6.35452  0.999451
6.43054  6.31586
6.50655  5.31252
6.58256  1.06901
6.65857  1.30856
6.73459  5.11316
6.8106  8.64178
6.88661  9.29555
6.96263  22.7263
7.03864  72.8556
7.11465  76.6962
7.19067  26.6721
7.26668  7.66007
7.34269  3.06518
7.41871  1.34401
7.49472  0.385277
7.57073  0.39737
7.64674  0.368726
7.72276  0.0103834
7.79877  0.336006
7.87478  0.426795
7.9508  0.909462
8.02681  0.463526
8.10282  0.275181
8.17884  0.397168
8.25485  -0.0238201
8.33086  1.11336
8.40688  0.0706965
8.48289  1.02981
8.5589  0.295011
8.63491  -0.488771
8.71093  -0.322471
8.78694  0.29282
8.86295  0.348866
8.93897  0.42468
9.01498  1.12771
9.09099  5.66148
9.16701  18.3538
9.24302  55.9598
9.31903  103.036
9.39505  134.801
9.47106  165.46
9.54707  248.644
9.62308  306.287
9.6991  245.876
9.77511  168.891
9.85112  102.737
9.92714  44.5419
10.0031  17.0356
10.0792  5.79212
10.1552  1.62326
10.2312  -0.562431
10.3072  -0.895721
10.3832  -0.33853
10.4592  0.67072
10.5352  4.15361
10.6113  9.80255
10.6873  14.7822
10.7633  15.4463
10.8393  14.6236
10.9153  15.95
10.9913  18.5351
11.0673  24.8608
11.1433  31.2775
11.2194  31.4804
11.2954  25.3944
11.3714  19.4168
11.4474  15.6493
11.5234  9.72918
11.5994  3.67333
11.6754  0.972555
11.7515  -0.627372
11.8275  -0.803192
11.9035  1.03937
11.9795  7.73721
12.0555  27.1876
12.1315  81.7968
12.2075  181.544
12.2835  186.041
12.3596  81.7444
12.4356  38.9994
12.5116  32.3199
12.5876  37.1382
12.6636  51.8305
12.7396  74.2336
12.8156  72.341
12.8916  48.029
12.9677  36.4717
13.0437  34.6803
13.1197  35.6466
13.1957  33.6941
13.2717  30.7666
13.3477  28.3975
13.4237  25.1128
13.4998  23.8676
13.5758  23.7392
13.6518  18.6504
13.7278  7.42932
13.8038  0.605072
13.8798  -0.663365
13.9558  -0.648495
14.0318  0.679995
14.1079  3.65656
14.1839  8.00643
14.2599  11.2072
14.3359  14.4401
14.4119  9.45853
14.4879  1.58294
14.5639  -0.0716501
14.6399  -0.367018
14.716  -0.216788
14.792  -0.349694
14.868  -0.101039
14.944  0.636728
15.02  0.0804264
15.096  0.553372
15.172  -0.0901346
15.2481  1.13551
15.3241  0.367318
15.4001  0.41413
15.4761  0.487439
15.5521  0.0843907
15.6281  0.400201
15.7041  0.637551
15.7801  1.29001
15.8562  2.23366
15.9322  4.55095
16.0082  6.23146
16.0842  9.85721
16.1602  12.2818
16.2362  15.4967
16.3122  17.74
16.3882  20.0236
16.4643  25.7255
16.5403  35.9659
16.6163  38.9413
16.6923  30.6221
16.7683  18.933
16.8443  10.1895
16.9203  5.80867
16.9964  3.52419
17.0724  2.27202
17.1484  1.47596
17.2244  1.29211
17.3004  1.82479
17.3764  1.48698
17.4524  1.9952
17.5284  3.08051
17.6045  4.48956
17.6805  6.93083
17.7565  10.1339
17.8325  15.8077
17.9085  27.4894
17.9845  46.7224
18.0605  64.6646
18.1365  66.6404
18.2126  56.7571
18.2886  43.0148
18.3646  28.4577
18.4406  18.9905
18.5166  11.102
18.5926  5.94821
18.6686  3.40757
18.7447  1.36808
18.8207  0.248756
18.8967  -0.342861
18.9727  0.314037
19.0487  2.07007
19.1247  4.6933
19.2007  5.61758
19.2767  4.9161
19.3528  3.04547
19.4288  0.989362
19.5048  -0.0875357
19.5808  -0.611736
19.6568  -0.0211677
19.7328  0.465684
19.8088  0.999531
19.8848  2.23345
19.9609  3.70391
20.0369  3.86739
20.1129  2.55955
20.1889  1.44032
20.2649  0.829865
20.3409  0.317191
20.4169  0.30471
20.493  0.0566205
20.569  0.566329
20.645  0.256048
20.721  0.395866
20.797  0.310487
20.873  -0.0671385
20.949  0.292959
21.025  0.336146
21.1011  0.534952
21.1771  0.461099
21.2531  0.482832
21.3291  -0.16789
21.4051  0.262459
21.4811  0.0772036
21.5571  0.278914
21.6331  0.412077
21.7092  0.0677702
21.7852  0.225863
21.8612  -0.0210452
21.9372  0.0239142
22.0132  0.181837
22.0322  -0.0719848

File: 12_ReMoB2_575psi_noRuby_S_P1_C1_D1w_079.dat
2.93393  0.326953
3.00995  0.957969
3.08596  0.670951
3.16197  0.731356
3.23799  0.077523
3.314  1.1622
3.39001  1.71252
3.46603  4.88179
3.54204  11.3997
3.61805  4.54749
3.69407  1.59273
3.77008  1.61627
3.84609  0.66291
3.9221  0.241776
3.99812  1.28371
4.07413  0.229405
4.15014  -0.0764393
4.22616  1.21103
4.30217  0.967923
4.37818  1.61313
4.4542  0.645949
4.53021  -0.153821
4.60622  1.33817
4.68224  0.181963
4.75825  0.71097
4.83426  0.78054
4.91027  0.693361
4.98629  0.506997
5.0623  0.179521
5.13831  1.02168
5.21433  0.633063
5.29034  0.942763
5.36635  0.284904
5.44237  0.201053
5.51838  -0.0595855
5.59439  0.22858
5.67041  0.822984
5.74642  0.790193
5.82243  1.80463
5.89844  2.65297
5.97446  2.14341
6.05047  0.981138
6.12648  -0.0685458
6.2025  0.117337
6.27851  0.825252
6.35452  1.23375
6.43054  3.3327
6.50655  6.30795
6.58256  4.16856
6.65857  1.57235
6.73459  4.4728
6.8106  14.9277
6.88661  17.3688
6.96263  16.5998
7.03864  37.749
7.11465  52.5414
7.19067  29.101
7.26668  11.2721
7.34269  4.67852
7.41871  2.28629
7.49472  1.18852
7.57073  0.335743
7.64674  -0.0280906
7.72276  0.148055
7.79877  0.945525
7.87478  0.879302
7.9508  1.27647
8.02681  1.18018
8.10282  0.353351
8.17884  0.021457
8.25485  0.322916
8.33086  -0.104765
8.40688  0.181909
8.48289  -0.0599607
8.5589  1.01455
8.63491  0.364807
8.71093  -0.235073
8.78694  -0.0562876
8.86295  -0.151028
8.93897  0.205473
9.01498  0.130328
9.09099  2.04886
9.16701  8.73612
9.24302  31.2923
9.31903  97.93
9.39505  176.152
9.47106  191.85
9.54707  188.514
9.62308  229.863
9.6991  264.792
9.77511  226.993
9.85112  140.989
9.92714  79.9022
10.0031  40.0717
10.0792  17.3693
10.1552  5.88072
10.2312  0.11128
10.3072  0.0273557
10.3832  7.51327
10.4592  19.5839
10.5352  16.0058
10.6113  6.33165
10.6873  6.81494
10.7633  10.9497
10.8393  15.3119
10.9153  14.5261
10.9913  12.2421
11.0673  12.8775
11.1433  15.2372
11.2194  17.4128
11.2954  16.4417
11.3714  12.5806
11.4474  9.21904
11.5234  5.77966
11.5994  3.2998
11.6754  0.188339
11.7515  -0.606316
11.8275  -0.456583
11.9035  1.41816
11.9795  4.79509
12.0555  15.4831
12.1315  49.0378
12.2075  133.886
12.2835  235.4
12.3596  188.008
12.4356  91.1043
12.5116  47.7301
12.5876  36.4636
12.6636  36.982
12.7396  45.8405
12.8156  51.4672
12.8916  44.2254
12.9677  30.5284
13.0437  21.6854
13.1197  16.3862
13.1957  14.651
13.2717  13.6141
13.3477  13.7836
13.4237  13.0439
13.4998  12.1966
13.5758  10.9369
13.6518  9.81099
13.7278  6.53023
13.8038  2.04422
13.8798  0.426674
13.9558  2.56389
14.0318  5.10021
14.1079  6.53067
14.1839  7.58693
14.2599  7.02346
14.3359  5.59841
14.4119  3.52018
14.4879  0.426321
14.5639  -0.652456
14.6399  -0.659828
14.716  -0.357188
14.792  0.503412
14.868  0.396597
14.944  0.468689
15.02  -0.0704797
15.096  0.755472
15.172  0.509185
15.2481  0.802146
15.3241  0.111122
15.4001  0.584855
15.4761  0.25193
15.5521  0.22713
15.6281  -0.0106774
15.7041  0.302376
15.7801  1.26742
15.8562  1.51208
15.9322  2.87502
16.0082  4.67144
16.0842  7.63105
16.1602  11.2153
16.2362  15.6261
16.3122  20.3737
16.3882  23.3623
16.4643  26.2511
16.5403  26.5866
16.6163  25.9076
16.6923  23.6954
16.7683  19.3736
16.8443  12.3265
16.9203  7.35473
16.9964  4.20418
17.0724  2.65321
17.1484  2.5137
17.2244  2.06057
17.3004  2.55653
17.3764  1.92214
17.4524  1.92742
17.5284  2.66636
17.6045  3.59704
17.6805  4.34772
17.7565  6.32294
17.8325  8.96237
17.9085  13.4109
17.9845  20.7442
18.0605  32.7182
18.1365  47.5548
18.2126  58.7775
18.2886  54.4399
18.3646  41.5642
18.4406  27.9027
18.5166  16.908
18.5926  9.31641
18.6686  4.47042
18.7447  1.87316
18.8207  0.332279
18.8967  0.0111867
18.9727  0.140072
19.0487  0.0671546
19.1247  1.1172
19.2007  1.12977
19.2767  1.61918
19.3528  1.5239
19.4288  0.854166
19.5048  0.0882966
19.5808  -0.614796
19.6568  -0.106205
19.7328  -0.00764213
19.8088  0.359313
19.8848  0.766474
19.9609  0.781727
20.0369  1.70353
20.1129  1.62013
20.1889  2.27531
20.2649  2.68863
20.3409  1.97309
20.4169  2.10532
20.493  1.86954
20.569  1.59315
20.645  1.09478
20.721  0.716509
20.797  0.115044
20.873  0.125646
20.949  0.530864
21.025  0.797713
21.1011  0.302586
21.1771  0.265495
21.2531  0.246676
21.3291  0.383062
21.4051  0.133747
21.4811  0.00303944
21.5571  0.440129
21.6331  0.212084
21.7092  -0.0484956
21.7852  -0.00636132
21.8612  0.199634
21.9372  -0.062297
22.0132  0.264974
22.0322  -0.144239

File: 13_ReMoB2_605psi_noRuby_S_P1_C1_D1w_085.dat
2.93393  0.444067
3.00995  0.420141
3.08596  0.0556609
3.16197  0.471743
3.23799  0.138074
3.314  0.956036
3.39001  2.18442
3.46603  3.09717
3.54204  9.81773
3.61805  5.49865
3.69407  1.3532
3.77008  0.906333
3.84609  1.19102
3.9221  0.97802
3.99812  1.16489
4.07413  1.13529
4.15014  0.0202144
4.22616  0.481725
4.30217  -0.00516996
4.37818  0.652751
4.4542  0.813153
4.53021  1.38593
4.60622  0.257067
4.68224  0.429879
4.75825  0.409983
4.83426  -0.0330772
4.91027  0.755701
4.98629  0.906742
5.0623  0.422941
5.13831  0.123235
5.21433  0.795617
5.29034  0.981454
5.36635  0.0101875
5.44237  0.895768
5.51838  0.339376
5.59439  0.948455
5.67041  0.633552
5.74642  2.00723
5.82243  4.32662
5.89844  6.89644
5.97446  3.29075
6.05047  1.80095
6.12648  0.478883
6.2025  -0.20553
6.27851  -0.100884
6.35452  0.828575
6.43054  1.52311
6.50655  6.59975
6.58256  6.34578
6.65857  0.946665
6.73459  1.98482
6.8106  7.99297
6.88661  15.343
6.96263  12.4796
7.03864  23.6239
7.11465  48.7928
7.19067  35.3233
7.26668  13.2241
7.34269  5.62052
7.41871  3.44563
7.49472  0.62843
7.57073  0.833797
7.64674  0.424503
7.72276  0.0507304
7.79877  0.680799
7.87478  0.821578
7.9508  1.08216
8.02681  0.921982
8.10282  0.116401
8.17884  0.635847
8.25485  0.233129
8.33086  0.340471
8.40688  0.406124
8.48289  -0.135234
8.5589  0.919763
8.63491  0.300061
8.71093  -0.0383342
8.78694  0.178797
8.86295  0.192044
8.93897  0.128249
9.01498  0.548816
9.09099  2.96284
9.16701  9.90402
9.24302  33.1672
9.31903  108.921
9.39505  212.858
9.47106  238.615
9.54707  195.265
9.62308  164.171
9.6991  164.587
9.77511  156.448
9.85112  116.666
9.92714  77.0196
10.0031  46.0412
10.0792  24.7783
10.1552  10.7883
10.2312  2.46291
10.3072  -1.0942
10.3832  0.883487
10.4592  8.42546
10.5352  14.0541
10.6113  8.31229
10.6873  4.19084
10.7633  6.37612
10.8393  11.7144
10.9153  15.6378
10.9913  12.3574
11.0673  7.50549
11.1433  7.17615
11.2194  6.80604
11.2954  7.9502
11.3714  6.78877
11.4474  4.70651
11.5234  3.42598
11.5994  3.17901
11.6754  1.54473
11.7515  -0.472753
11.8275  -0.862711
11.9035  1.76978
11.9795  5.05205
12.0555  12.7925
12.1315  36.0168
12.2075  97.3961
12.2835  230.995
12.3596  349.891
12.4356  238.229
12.5116  109.334
12.5876  56.3787
12.6636  39.9995
12.7396  34.914
12.8156  35.5533
12.8916  34.331
12.9677  26.019
13.0437  18.4288
13.1197  13.3437
13.1957  10.3684
13.2717  8.4837
13.3477  8.9981
13.4237  8.37659
13.4998  8.53163
13.5758  6.85518
13.6518  5.37517
13.7278  3.91841
13.8038  0.999098
13.8798  -0.418875
13.9558  -0.139162
14.0318  3.26441
14.1079  5.39411
14.1839  6.17047
14.2599  6.7767
14.3359  9.71152
14.4119  9.22605
14.4879  4.71039
14.5639  0.964826
14.6399  -0.139297
14.716  -0.410985
14.792  -0.474796
14.868  -0.0666165
14.944  0.327197
15.02  -0.327136
15.096  0.334441
15.172  0.701675
15.2481  1.09774
15.3241  1.18074
15.4001  0.987149
15.4761  0.687751
15.5521  0.681514
15.6281  0.0847287
15.7041  -0.321683
15.7801  -0.12709
15.8562  0.68959
15.9322  1.64368
16.0082  3.69709
16.0842  5.6941
16.1602  11.208
16.2362  17.7956
16.3122  24.7245
16.3882  31.0382
16.4643  36.377
16.5403  37.3335
16.6163  31.9335
16.6923  26.4789
16.7683  24.762
16.8443  20.8132
16.9203  14.4059
16.9964  8.62346
17.0724  4.78948
17.1484  3.71455
17.2244  3.09281
17.3004  2.91054
17.3764  3.39686
17.4524  2.74278
17.5284  2.19575
17.6045  1.95191
17.6805  2.55318
17.7565  4.27644
17.8325  6.25572
17.9085  9.3244
17.9845  14.8383
18.0605  23.8762
18.1365  37.2939
18.2126  53.3612
18.2886  60.8654
18.3646  55.5193
18.4406  43.2371
18.5166  29.0085
18.5926  16.7889
18.6686  8.85404
18.7447  4.3513
18.8207  1.75281
18.8967  0.822825
18.9727  0.0768537
19.0487  -0.272066
19.1247  -0.00059151
19.2007  -0.0475158
19.2767  0.34834
19.3528  1.05751
19.4288  0.995869
19.5048  0.85505
19.5808  0.446835
19.6568  0.0915187
19.7328  -0.508764
19.8088  0.144566
19.8848  0.0317017
19.9609  0.450019
20.0369  0.437112
20.1129  0.518649
20.1889  0.497816
20.2649  1.05832
20.3409  1.13954
20.4169  1.55587
20.493  1.61887
20.569  1.78489
20.645  0.968739
20.721  0.95914
20.797  0.401137
20.873  0.157714
20.949  0.278349
21.025  0.202641
21.1011  0.114128
21.1771  0.499913
21.2531  0.132164
21.3291  0.150243
21.4051  0.0403722
21.4811  0.195628
21.5571  0.221441
21.6331  0.207271
21.7092  0.0602047
21.7852  0.0721689
21.8612  0.0843167
21.9372  -0.115916
22.0132  0.048562
22.0322  -0.0366803

File: 14_ReMoB2_635psi_noRuby_S_P1_C1_D1w_091.dat
2.93393  0.265275
3.00995  0.537975
3.08596  0.869218
3.16197  0.632698
3.23799  1.63974
3.314  1.46773
3.39001  0.493576
3.46603  3.6361
3.54204  10.5361
3.61805  7.12699
3.69407  1.77284
3.77008  1.73122
3.84609  1.34857
3.9221  0.85975
3.99812  0.847898
4.07413  1.00244
4.15014  0.252768
4.22616  0.178115
4.30217  0.54683
4.37818  0.975751
4.4542  1.53452
4.53021  0.68234
4.60622  0.762037
4.68224  0.853638
4.75825  0.635811
4.83426  1.04841
4.91027  -0.0368825
4.98629  0.61056
5.0623  0.430847
5.13831  1.64364
5.21433  0.965767
5.29034  1.13282
5.36635  0.648149
5.44237  -0.0560168
5.51838  1.09727
5.59439  0.704533
5.67041  0.790707
5.74642  0.666509
5.82243  0.781341
5.89844  1.71415
5.97446  1.75006
6.05047  1.56643
6.12648  0.57193
6.2025  0.291174
6.27851  -0.149002
6.35452  -0.26178
6.43054  1.31908
6.50655  3.83523
6.58256  6.6371
6.65857  1.70866
6.73459  0.852305
6.8106  3.50316
6.88661  8.75489
6.96263  10.5458
7.03864  18.4943
7.11465  49.3832
7.19067  49.5535
7.26668  20.3394
7.34269  7.58598
7.41871  3.56159
7.49472  2.0051
7.57073  0.882594
7.64674  0.614597
7.72276  0.413656
7.79877  0.417642
7.87478  0.323617
7.9508  0.376862
8.02681  0.571328
8.10282  0.266169
8.17884  0.637078
8.25485  0.842677
8.33086  -0.100565
8.40688  1.05272
8.48289  0.453862
8.5589  0.755443
8.63491  -0.200837
8.71093  -0.082029
8.78694  -0.213312
8.86295  0.27745
8.93897  0.919292
9.01498  1.82316
9.09099  3.689
9.16701  11.0034
9.24302  28.6344
9.31903  81.4614
9.39505  199.142
9.47106  265.481
9.54707  221.072
9.62308  150.426
9.6991  124.942
9.77511  121.76
9.85112  108.548
9.92714  83.146
10.0031  52.2214
10.0792  27.5539
10.1552  11.318
10.2312  3.62171
10.3072  -0.088817
10.3832  -1.05537
10.4592  -0.500402
10.5352  1.64881
10.6113  3.47285
10.6873  2.63432
10.7633  2.97177
10.8393  4.90075
10.9153  6.09378
10.9913  6.56542
11.0673  5.62633
11.1433  6.7489
11.2194  9.29769
11.2954  11.086
11.3714  10.9772
11.4474  7.92163
11.5234  4.09208
11.5994  1.12768
11.6754  -0.326153
11.7515  -0.82915
11.8275  -0.0332968
11.9035  1.80918
11.9795  5.71169
12.0555  14.4302
12.1315  35.3454
12.2075  87.5283
12.2835  201.048
12.3596  370.704
12.4356  376.509
12.5116  203.926
12.5876  87.2378
12.6636  44.7079
12.7396  31.1867
12.8156  26.0843
12.8916  24.3661
12.9677  21.4577
13.0437  16.3097
13.1197  12.4067
13.1957  10.0826
13.2717  9.44074
13.3477  9.73944
13.4237  10.2408
13.4998  10.7385
13.5758  9.10827
13.6518  7.02951
13.7278  4.49235
13.8038  2.30684
13.8798  0.739394
13.9558  -0.827163
14.0318  -0.127838
14.1079  2.33281
14.1839  3.5063
14.2599  4.48411
14.3359  5.10925
14.4119  5.3456
14.4879  3.99345
14.5639  2.11564
14.6399  0.207062
14.716  -0.442772
14.792  0.0432618
14.868  -0.199519
14.944  0.0668172
15.02  -0.467941
15.096  0.255737
15.172  0.303918
15.2481  0.807197
15.3241  0.989825
15.4001  0.987348
15.4761  0.942307
15.5521  0.291931
15.6281  0.0393602
15.7041  0.55997
15.7801  0.185255
15.8562  0.541919
15.9322  0.953053
16.0082  2.38324
16.0842  4.05669
16.1602  8.36699
16.2362  13.7028
16.3122  21.6785
16.3882  29.336
16.4643  34.4636
16.5403  35.998
16.6163  32.5738
16.6923  26.1209
16.7683  23.7233
16.8443  22.4789
16.9203  20.4465
16.9964  15.241
17.0724  8.83245
17.1484  4.08735
17.2244  3.0624
17.3004  2.00954
17.3764  1.84235
17.4524  2.10658
17.5284  2.33195
17.6045  1.80337
17.6805  2.54077
17.7565  2.95831
17.8325  4.81589
17.9085  7.19456
17.9845  11.7744
18.0605  18.1167
18.1365  27.0233
18.2126  41.1832
18.2886  55.2498
18.3646  62.6817
18.4406  57.3197
18.5166  43.1414
18.5926  26.1908
18.6686  14.3709
18.7447  7.50348
18.8207  3.6334
18.8967  1.86624
18.9727  0.44312
19.0487  -0.117276
19.1247  0.107505
19.2007  -0.10988
19.2767  -0.110498
19.3528  0.436996
19.4288  1.58628
19.5048  2.46852
19.5808  1.96643
19.6568  1.0519
19.7328  -0.16481
19.8088  -0.427355
19.8848  0.0790251
19.9609  -0.128403
20.0369  0.333648
20.1129  0.631016
20.1889  0.590271
20.2649  1.05155
20.3409  1.1557
20.4169  1.88501
20.493  5.48461
20.569  7.78313
20.645  4.12415
20.721  2.72178
20.797  1.17673
20.873  0.511798
20.949  0.216547
21.025  0.378539
21.1011  -0.0791118
21.1771  0.242122
21.2531  0.476961
21.3291  0.135752
21.4051  0.295686
21.4811  -0.169005
21.5571  0.11557
21.6331  0.460842
21.7092  0.279031
21.7852  0.358541
21.8612  -0.189645
21.9372  0.146341
22.0132  -0.235439
22.0322  0.169537

File: 15_ReMoB2_665psi_noRuby_S_P1_C1_D1w_097.dat
2.93393  0.30517
3.00995  0.569017
3.08596  0.272214
3.16197  0.591803
3.23799  1.02365
3.314  0.62955
3.39001  0.865221
3.46603  2.6757
3.54204  10.3168
3.61805  7.7786
3.69407  1.90587
3.77008  1.39777
3.84609  1.15953
3.9221  0.882682
3.99812  0.271008
4.07413  1.1188
4.15014  0.887192
4.22616  -0.127882
4.30217  0.213456
4.37818  1.18368
4.4542  1.51632
4.53021  0.836085
4.60622  0.458317
4.68224  0.100609
4.75825  0.382605
4.83426  0.0459025
4.91027  0.700324
4.98629  0.246212
5.0623  0.74984
5.13831  1.13317
5.21433  0.552097
5.29034  1.07139
5.36635  0.746059
5.44237  -0.179838
5.51838  1.05559
5.59439  0.292479
5.67041  0.654699
5.74642  0.129988
5.82243  1.00582
5.89844  1.721
5.97446  2.06567
6.05047  -0.0279687
6.12648  0.279573
6.2025  0.356292
6.27851  -0.0935616
6.35452  0.679917
6.43054  0.703136
6.50655  3.82641
6.58256  7.43975
6.65857  1.81476
6.73459  0.460398
6.8106  1.44257
6.88661  7.42586
6.96263  10.3083
7.03864  14.9262
7.11465  38.424
7.19067  53.7826
7.26668  27.0455
7.34269  10.4164
7.41871  5.37157
7.49472  3.11271
7.57073  2.23003
7.64674  0.82411
7.72276  0.927352
7.79877  -0.0708292
7.87478  0.561662
7.9508  0.491837
8.02681  0.51654
8.10282  0.664693
8.17884  0.376453
8.25485  0.0245716
8.33086  0.407573
8.40688  0.494956
8.48289  0.229296
8.5589  -0.306087
8.63491  -0.346555
8.71093  0.271642
8.78694  0.465238
8.86295  0.254311
8.93897  0.198565
9.01498  1.45301
9.09099  2.92957
9.16701  7.48296
9.24302  18.3217
9.31903  50.7962
9.39505  145.274
9.47106  268.81
9.54707  257.73
9.62308  178.739
9.6991  130.434
9.77511  121.377
9.85112  117.181
9.92714  97.3884
10.0031  65.8985
10.0792  38.4881
10.1552  17.0713
10.2312  6.73839
10.3072  1.37865
10.3832  -0.649474
10.4592  -0.918566
10.5352  0.586313
10.6113  3.58186
10.6873  3.1188
10.7633  3.23964
10.8393  3.07731
10.9153  3.18665
10.9913  3.85944
11.0673  4.30882
11.1433  5.75721
11.2194  7.24747
11.2954  9.8504
11.3714  11.0133
11.4474  9.0878
11.5234  5.6758
11.5994  1.82673
11.6754  0.491377
11.7515  -0.590074
11.8275  -0.416978
11.9035  1.00749
11.9795  3.6862
12.0555  9.50556
12.1315  23.8414
12.2075  60.6063
12.2835  147.176
12.3596  311.471
12.4356  436.14
12.5116  323.185
12.5876  158.44
12.6636  67.1674
12.7396  35.7802
12.8156  25.7812
12.8916  21.5569
12.9677  18.6937
13.0437  14.2223
13.1197  10.3292
13.1957  8.65892
13.2717  8.63389
13.3477  7.77933
13.4237  9.28525
13.4998  10.633
13.5758  10.4574
13.6518  8.49622
13.7278  5.22867
13.8038  3.33309
13.8798  1.46186
13.9558  -0.117918
14.0318  -0.729908
14.1079  0.39064
14.1839  1.88162
14.2599  3.78932
14.3359  5.55783
14.4119  5.9834
14.4879  5.23706
14.5639  3.2351
14.6399  0.955027
14.716  -0.0254609
14.792  -0.159629
14.868  -0.388576
14.944  -0.158492
15.02  -0.164276
15.096  0.307502
15.172  0.160243
15.2481  0.754578
15.3241  0.611189
15.4001  0.220579
15.4761  0.93071
15.5521  0.779736
15.6281  0.293466
15.7041  2.02904
15.7801  0.345479
15.8562  -0.163706
15.9322  0.649037
16.0082  1.33619
16.0842  2.27235
16.1602  5.29228
16.2362  8.64857
16.3122  14.4111
16.3882  22.2333
16.4643  27.6784
16.5403  30.5896
16.6163  29.4625
16.6923  26.7106
16.7683  23.1023
16.8443  20.8989
16.9203  20.5427
16.9964  17.6888
17.0724  13.1592
17.1484  8.02466
17.2244  4.31048
17.3004  2.88586
17.3764  1.53859
17.4524  1.94268
17.5284  2.12575
17.6045  2.45522
17.6805  2.23416
17.7565  2.70315
17.8325  3.72533
17.9085  4.71569
17.9845  8.10984
18.0605  11.9925
18.1365  18.8091
18.2126  29.0527
18.2886  41.271
18.3646  52.5989
18.4406  56.6457
18.5166  49.3835
18.5926  34.9693
18.6686  20.153
18.7447  10.1128
18.8207  5.40292
18.8967  3.58797
18.9727  1.83107
19.0487  -0.0747924
19.1247  -0.0613393
19.2007  0.113301
19.2767  -0.44524
19.3528  0.308022
19.4288  0.593508
19.5048  1.53334
19.5808  2.03439
19.6568  1.57155
19.7328  0.796249
19.8088  0.398126
19.8848  -0.317616
19.9609  -0.361475
20.0369  0.248051
20.1129  0.332262
20.1889  0.296665
20.2649  0.528375
20.3409  0.661114
20.4169  0.940346
20.493  1.74305
20.569  1.66716
20.645  1.42477
20.721  1.31616
20.797  1.09763
20.873  0.825423
20.949  0.734066
21.025  0.233619
21.1011  -0.0525304
21.1771  0.179322
21.2531  0.629237
21.3291  0.148043
21.4051  0.25242
21.4811  0.0533981
21.5571  -0.0314212
21.6331  0.0553323
21.7092  0.326716
21.7852  0.326922
21.8612  -0.224853
21.9372  0.273217
22.0132  -0.317364
22.0322  0.208125