Folder: remob2/data/processed/Run2_XRD (part 5)

File: 21_ReMoB2_845psi_noRuby_S_P1_C1_D1w_133.dat
2.93393  0.367822
3.00995  1.83726
3.08596  2.04312
3.16197  0.539582
3.23799  0.953433
3.314  1.50113
3.39001  0.65255
3.46603  1.83855
3.54204  4.86396
3.61805  10.3968
3.69407  4.13205
3.77008  1.4604
3.84609  0.11655
3.9221  1.52522
3.99812  1.11551
4.07413  0.708945
4.15014  0.238606
4.22616  0.497171
4.30217  0.443476
4.37818  0.276167
4.4542  0.195785
4.53021  0.872888
4.60622  0.929742
4.68224  0.0555378
4.75825  0.898861
4.83426  0.677922
4.91027  1.00441
4.98629  1.03271
5.0623  0.085134
5.13831  0.933118
5.21433  1.14541
5.29034  0.70344
5.36635  0.19653
5.44237  0.113358
5.51838  1.62046
5.59439  1.50295
5.67041  0.704572
5.74642  -0.134804
5.82243  0.48589
5.89844  0.330652
5.97446  2.57697
6.05047  2.30451
6.12648  0.59468
6.2025  0.170033
6.27851  -0.195545
6.35452  0.10289
6.43054  0.2125
6.50655  -0.0402015
6.58256  3.08065
6.65857  5.31989
6.73459  1.03693
6.8106  0.217413
6.88661  0.495187
6.96263  4.03864
7.03864  10.1483
7.11465  14.4806
7.19067  31.0791
7.26668  48.3412
7.34269  28.5009
7.41871  12.8618
7.49472  6.98324
7.57073  4.54965
7.64674  2.8425
7.72276  1.84051
7.79877  1.23063
7.87478  0.976228
7.9508  0.655415
8.02681  0.782551
8.10282  -0.0450081
8.17884  0.669384
8.25485  -0.067873
8.33086  -0.168678
8.40688  0.430599
8.48289  0.655079
8.5589  0.573034
8.63491  0.24088
8.71093  0.252503
8.78694  -0.532418
8.86295  -0.371532
8.93897  -0.367098
9.01498  0.497027
9.09099  0.791945
9.16701  1.3201
9.24302  4.72189
9.31903  10.5193
9.39505  25.5657
9.47106  71.3624
9.54707  195.124
9.62308  295.033
9.6991  247.49
9.77511  180.75
9.85112  127.959
9.92714  96.6238
10.0031  80.6401
10.0792  65.6952
10.1552  46.2701
10.2312  28.9691
10.3072  16.4152
10.3832  7.87558
10.4592  2.90997
10.5352  -0.720429
10.6113  -1.05914
10.6873  1.18787
10.7633  4.77424
10.8393  4.88816
10.9153  3.65138
10.9913  1.71402
11.0673  0.168076
11.1433  1.63793
11.2194  2.88204
11.2954  2.4344
11.3714  1.33657
11.4474  2.43205
11.5234  2.14931
11.5994  2.05215
11.6754  1.3917
11.7515  0.319878
11.8275  -0.465308
11.9035  -0.26754
11.9795  -0.18517
12.0555  0.606222
12.1315  3.8882
12.2075  9.42126
12.2835  20.2539
12.3596  46.746
12.4356  118.657
12.5116  286.202
12.5876  476.095
12.6636  464.516
12.7396  299.578
12.8156  133.76
12.8916  56.8184
12.9677  31.9939
13.0437  21.7228
13.1197  15.6432
13.1957  11.9211
13.2717  7.68562
13.3477  5.06398
13.4237  2.48125
13.4998  2.78297
13.5758  2.65503
13.6518  3.22787
13.7278  2.69851
13.8038  3.11693
13.8798  1.48687
13.9558  0.612175
14.0318  -0.402203
14.1079  -0.00582995
14.1839  -0.267774
14.2599  0.854644
14.3359  3.0011
14.4119  4.80857
14.4879  6.45656
14.5639  6.89022
14.6399  6.31028
14.716  5.01096
14.792  2.67822
14.868  0.851566
14.944  0.978522
15.02  -0.0393704
15.096  0.0288393
15.172  0.526816
15.2481  -0.277669
15.3241  0.238105
15.4001  0.517265
15.4761  0.552313
15.5521  0.81382
15.6281  0.590421
15.7041  0.844275
15.7801  0.27989
15.8562  0.381858
15.9322  0.423484
16.0082  0.390045
16.0842  -0.198341
16.1602  0.658612
16.2362  0.998811
16.3122  2.61325
16.3882  5.38063
16.4643  10.5943
16.5403  19.1916
16.6163  29.0688
16.6923  36.0498
16.7683  36.4521
16.8443  32.8369
16.9203  28.2872
16.9964  24.3771
17.0724  19.9284
17.1484  16.4201
17.2244  13.3409
17.3004  11.7566
17.3764  6.87547
17.4524  4.73021
17.5284  2.89302
17.6045  2.20117
17.6805  2.48427
17.7565  2.39931
17.8325  2.58373
17.9085  2.40448
17.9845  2.87334
18.0605  2.56746
18.1365  3.80842
18.2126  5.55976
18.2886  8.0178
18.3646  12.2517
18.4406  20.0819
18.5166  29.1519
18.5926  37.4321
18.6686  40.5155
18.7447  36.7839
18.8207  27.1783
18.8967  16.0942
18.9727  7.81293
19.0487  3.16896
19.1247  1.57092
19.2007  0.806141
19.2767  0.328229
19.3528  -0.112026
19.4288  -0.0528948
19.5048  -0.148624
19.5808  0.587677
19.6568  0.133141
19.7328  0.283983
19.8088  0.254075
19.8848  0.0546341
19.9609  0.548708
20.0369  0.269094
20.1129  0.354317
20.1889  -0.0813758
20.2649  -0.131794
20.3409  0.507857
20.4169  0.249981
20.493  0.18658
20.569  0.272213
20.645  0.640712
20.721  0.884021
20.797  1.4324
20.873  1.18892
20.949  1.46712
21.025  1.44656
21.1011  1.13629
21.1771  0.868138
21.2531  0.90611
21.3291  0.241641
21.4051  0.0672914
21.4811  0.0258758
21.5571  0.182923
21.6331  -0.0150531
21.7092  0.325286
21.7852  0.142294
21.8612  -0.209574
21.9372  0.175309
22.0132  -0.234866
22.0322  0.146763

File: 22_ReMoB2_875psi_noRuby_S_P1_C1_D1w_139.dat
2.93393  0.512281
3.00995  0.37458
3.08596  0.800999
3.16197  0.628341
3.23799  1.00366
3.314  1.13879
3.39001  1.92576
3.46603  2.16075
3.54204  4.98151
3.61805  14.2832
3.69407  8.30834
3.77008  2.25962
3.84609  0.874416
3.9221  0.916138
3.99812  0.17505
4.07413  0.668269
4.15014  0.68389
4.22616  0.612132
4.30217  -0.0110834
4.37818  0.793462
4.4542  0.753825
4.53021  0.979362
4.60622  0.810425
4.68224  1.98413
4.75825  0.958935
4.83426  0.795173
4.91027  1.678
4.98629  1.79177
5.0623  0.0375181
5.13831  1.35394
5.21433  0.6621
5.29034  1.07999
5.36635  1.51698
5.44237  1.23809
5.51838  0.468188
5.59439  1.3522
5.67041  0.96396
5.74642  0.358582
5.82243  0.302642
5.89844  0.589081
5.97446  2.68566
6.05047  1.10511
6.12648  0.86855
6.2025  0.463963
6.27851  0.871564
6.35452  0.02088
6.43054  0.25983
6.50655  -0.0609617
6.58256  1.9823
6.65857  5.56336
6.73459  1.97611
6.8106  0.459288
6.88661  0.846358
6.96263  3.89395
7.03864  11.1217
7.11465  16.1795
7.19067  35.7933
7.26668  65.0681
7.34269  45.5728
7.41871  22.757
7.49472  12.6218
7.57073  7.70732
7.64674  5.81007
7.72276  4.34574
7.79877  3.98525
7.87478  2.73308
7.9508  1.45146
8.02681  1.25038
8.10282  1.02767
8.17884  0.421063
8.25485  -0.195314
8.33086  0.574865
8.40688  0.433481
8.48289  0.48034
8.5589  0.923248
8.63491  -0.278238
8.71093  -0.263572
8.78694  0.0189142
8.86295  -0.0666865
8.93897  -0.152478
9.01498  -0.0983532
9.09099  0.64522
9.16701  1.3998
9.24302  3.09355
9.31903  8.21838
9.39505  19.3456
9.47106  49.6308
9.54707  141.569
9.62308  254.282
9.6991  246.496
9.77511  197.825
9.85112  159.762
9.92714  148.932
10.0031  156.702
10.0792  136.705
10.1552  92.5103
10.2312  52.553
10.3072  25.1222
10.3832  10.3365
10.4592  2.94219
10.5352  -0.261276
10.6113  -0.92826
10.6873  -0.84241
10.7633  0.571573
10.8393  2.26789
10.9153  3.61819
10.9913  3.43283
11.0673  1.91552
11.1433  2.57817
11.2194  2.09348
11.2954  3.10215
11.3714  4.40879
11.4474  6.28201
11.5234  7.00519
11.5994  5.81663
11.6754  4.72863
11.7515  2.03529
11.8275  0.136888
11.9035  -0.0707795
11.9795  -0.932461
12.0555  -0.374018
12.1315  2.14689
12.2075  7.04047
12.2835  15.3097
12.3596  37.5859
12.4356  99.4487
12.5116  241.55
12.5876  404.33
12.6636  402.559
12.7396  273.35
12.8156  141.031
12.8916  68.2647
12.9677  38.0889
13.0437  26.2965
13.1197  20.0302
13.1957  15.6611
13.2717  11.0717
13.3477  8.69902
13.4237  6.83182
13.4998  6.39945
13.5758  6.51879
13.6518  6.53168
13.7278  6.55157
13.8038  4.7397
13.8798  3.78268
13.9558  1.94401
14.0318  0.679881
14.1079  -0.394304
14.1839  -0.566811
14.2599  -0.574069
14.3359  1.86241
14.4119  4.28715
14.4879  7.79642
14.5639  11.5936
14.6399  11.941
14.716  5.99867
14.792  2.62174
14.868  1.80373
14.944  0.781002
15.02  -0.388271
15.096  0.259898
15.172  0.0370824
15.2481  0.667548
15.3241  2.87075
15.4001  -0.0539146
15.4761  0.882857
15.5521  0.522286
15.6281  0.648972
15.7041  1.23617
15.7801  0.671936
15.8562  0.20827
15.9322  -0.0100923
16.0082  0.142344
16.0842  -0.00698447
16.1602  0.371024
16.2362  0.978749
16.3122  1.37961
16.3882  3.2286
16.4643  5.23204
16.5403  8.96167
16.6163  12.8824
16.6923  16.3962
16.7683  19.204
16.8443  19.289
16.9203  19.1618
16.9964  18.3869
17.0724  17.5097
17.1484  15.3239
17.2244  16.242
17.3004  14.8772
17.3764  11.771
17.4524  7.4065
17.5284  4.68339
17.6045  3.1102
17.6805  2.39784
17.7565  2.47653
17.8325  2.49417
17.9085  2.6281
17.9845  3.03254
18.0605  3.59827
18.1365  4.09696
18.2126  4.97417
18.2886  7.21321
18.3646  10.7565
18.4406  16.6901
18.5166  25.0431
18.5926  33.0772
18.6686  36.2872
18.7447  35.6968
18.8207  32.5496
18.8967  22.9135
18.9727  11.8991
19.0487  5.38845
19.1247  2.62127
19.2007  1.15521
19.2767  0.637883
19.3528  -0.140073
19.4288  0.288827
19.5048  -0.211383
19.5808  0.269083
19.6568  0.360705
19.7328  0.153273
19.8088  0.118954
19.8848  0.140639
19.9609  0.635071
20.0369  1.0175
20.1129  0.818075
20.1889  0.678331
20.2649  0.172729
20.3409  0.20597
20.4169  0.311425
20.493  -0.12074
20.569  0.370192
20.645  0.558785
20.721  1.08545
20.797  1.44705
20.873  1.51486
20.949  1.77322
21.025  1.64753
21.1011  2.034
21.1771  1.71043
21.2531  1.59453
21.3291  0.0981435
21.4051  0.182967
21.4811  -0.044273
21.5571  0.292907
21.6331  -0.0513636
21.7092  0.229692
21.7852  0.119182
21.8612  -0.276022
21.9372  0.306168
22.0132  -0.232409
22.0322  0.147295

File: 23_ReMoB2_910psi_noRuby_S_P1_C1_D1w_145.dat
2.93393  0.393879
3.00995  1.35956
3.08596  0.397648
3.16197  1.11034
3.23799  2.202
3.314  0.796144
3.39001  1.80186
3.46603  1.0615
3.54204  3.91268
3.61805  12.2988
3.69407  6.52962
3.77008  2.26431
3.84609  1.24568
3.9221  0.75386
3.99812  0.940939
4.07413  0.639562
4.15014  1.0014
4.22616  1.40482
4.30217  0.803243
4.37818  0.281743
4.4542  -0.227861
4.53021  1.10871
4.60622  0.295117
4.68224  1.1155
4.75825  1.14146
4.83426  1.10183
4.91027  1.35202
4.98629  0.209581
5.0623  0.417512
5.13831  -0.0612329
5.21433  1.08845
5.29034  0.386743
5.36635  0.7476
5.44237  0.213346
5.51838  0.117904
5.59439  0.304213
5.67041  1.09214
5.74642  -0.0773366
5.82243  0.137643
5.89844  0.676186
5.97446  1.85992
6.05047  2.09887
6.12648  0.818702
6.2025  -0.1091
6.27851  0.42887
6.35452  0.0770984
6.43054  0.962134
6.50655  0.430464
6.58256  1.38034
6.65857  5.54912
6.73459  1.85432
6.8106  0.0477813
6.88661  0.373354
6.96263  2.2608
7.03864  7.38621
7.11465  12.6728
7.19067  25.8952
7.26668  53.3903
7.34269  39.0077
7.41871  18.6749
7.49472  10.5972
7.57073  6.38764
7.64674  5.44783
7.72276  3.82925
7.79877  2.29985
7.87478  2.26056
7.9508  0.907779
8.02681  0.68138
8.10282  0.233079
8.17884  0.284462
8.25485  0.0808291
8.33086  0.0883666
8.40688  0.842196
8.48289  0.296601
8.5589  0.790166
8.63491  -0.446507
8.71093  0.231776
8.78694  -0.386613
8.86295  0.328462
8.93897  -0.0591112
9.01498  -0.0707037
9.09099  0.389422
9.16701  1.40147
9.24302  3.08155
9.31903  7.91539
9.39505  18.5947
9.47106  47.256
9.54707  133.495
9.62308  274.138
9.6991  272.62
9.77511  200.403
9.85112  143.531
9.92714  106.153
10.0031  86.8978
10.0792  75.8817
10.1552  56.8302
10.2312  37.3107
10.3072  20.7872
10.3832  10.3861
10.4592  3.80995
10.5352  0.470528
10.6113  -0.851646
10.6873  -0.705021
10.7633  2.12139
10.8393  3.65905
10.9153  4.51695
10.9913  2.23128
11.0673  0.231034
11.1433  0.795325
11.2194  1.41809
11.2954  1.47988
11.3714  1.81474
11.4474  2.88758
11.5234  2.54276
11.5994  3.22548
11.6754  1.88434
11.7515  0.545965
11.8275  -0.166811
11.9035  -0.49416
11.9795  0.0191257
12.0555  0.363264
12.1315  2.13757
12.2075  5.76527
12.2835  12.7678
12.3596  30.5936
12.4356  73.8794
12.5116  190.29
12.5876  400.687
12.6636  506.302
12.7396  399.275
12.8156  214.69
12.8916  89.7441
12.9677  43.1613
13.0437  25.9827
13.1197  18.2889
13.1957  13.3854
13.2717  9.84911
13.3477  6.90766
13.4237  4.64502
13.4998  2.96807
13.5758  2.99662
13.6518  3.57528
13.7278  3.26857
13.8038  3.40454
13.8798  2.09889
13.9558  1.37783
14.0318  -0.214866
14.1079  -0.350709
14.1839  -0.473126
14.2599  -0.155877
14.3359  1.51442
14.4119  3.01682
14.4879  5.18983
14.5639  7.09731
14.6399  6.95602
14.716  5.47761
14.792  2.66604
14.868  1.1851
14.944  0.993262
15.02  -0.264292
15.096  0.207346
15.172  -0.323625
15.2481  0.452426
15.3241  0.786477
15.4001  0.198182
15.4761  0.256859
15.5521  0.777462
15.6281  0.815873
15.7041  1.0281
15.7801  0.815661
15.8562  0.34558
15.9322  0.266798
16.0082  -0.204203
16.0842  -0.0395182
16.1602  0.482624
16.2362  0.445582
16.3122  1.78232
16.3882  3.59189
16.4643  6.64269
16.5403  11.8282
16.6163  20.9764
16.6923  28.6357
16.7683  33.1778
16.8443  32.5991
16.9203  29.4371
16.9964  25.9505
17.0724  22.337
17.1484  18.2939
17.2244  15.2354
17.3004  13.5208
17.3764  9.94867
17.4524  6.93206
17.5284  4.36346
17.6045  2.49566
17.6805  2.19585
17.7565  2.00967
17.8325  1.84784
17.9085  2.25448
17.9845  2.22194
18.0605  2.4912
18.1365  2.4973
18.2126  3.97081
18.2886  5.13201
18.3646  7.59118
18.4406  12.5158
18.5166  20.1408
18.5926  28.7291
18.6686  35.2645
18.7447  36.611
18.8207  32.6718
18.8967  24.7232
18.9727  14.3227
19.0487  6.30244
19.1247  3.01739
19.2007  1.94032
19.2767  0.802381
19.3528  0.224346
19.4288  0.0237843
19.5048  -0.14754
19.5808  0.150671
19.6568  0.320384
19.7328  0.486989
19.8088  0.342965
19.8848  -0.0311167
19.9609  0.37238
20.0369  0.431535
20.1129  -0.0568974
20.1889  -0.0693826
20.2649  0.301234
20.3409  0.154589
20.4169  -0.156861
20.493  0.154068
20.569  0.17761
20.645  0.305543
20.721  0.705425
20.797  0.948053
20.873  1.31485
20.949  1.54533
21.025  1.92092
21.1011  1.60387
21.1771  1.51851
21.2531  1.26026
21.3291  0.586361
21.4051  -0.116031
21.4811  0.128418
21.5571  0.100666
21.6331  0.0632885
21.7092  0.491694
21.7852  -0.0877109
21.8612  0.0321702
21.9372  0.0449813
22.0132  -0.172033
22.0322  0.076319

File: 24_ReMoB2_950psi_noRuby_S_P1_C1_D1w_151.dat
2.93393  0.491961
3.00995  1.67487
3.08596  1.17016
3.16197  1.66672
3.23799  1.13439
3.314  1.74022
3.39001  2.09471
3.46603  1.71954
3.54204  4.28562
3.61805  12.1553
3.69407  6.57739
3.77008  3.36052
3.84609  1.36825
3.9221  1.45192
3.99812  2.25772
4.07413  1.20965
4.15014  0.34371
4.22616  1.35345
4.30217  0.997129
4.37818  1.65717
4.4542  0.318902
4.53021  0.858578
4.60622  -0.011288
4.68224  1.66644
4.75825  0.463334
4.83426  0.0380038
4.91027  0.645206
4.98629  1.72176
5.0623  0.797374
5.13831  0.923324
5.21433  0.254864
5.29034  0.639921
5.36635  0.223825
5.44237  0.980079
5.51838  0.757102
5.59439  0.295444
5.67041  0.803477
5.74642  0.208885
5.82243  0.079913
5.89844  0.0159614
5.97446  1.78905
6.05047  1.79917
6.12648  1.28501
6.2025  0.232319
6.27851  0.919329
6.35452  0.174965
6.43054  0.706719
6.50655  -0.159743
6.58256  0.575374
6.65857  5.96083
6.73459  2.52985
6.8106  0.235103
6.88661  0.681138
6.96263  0.948113
7.03864  6.97542
7.11465  11.7416
7.19067  20.749
7.26668  46.7194
7.34269  40.0609
7.41871  20.3535
7.49472  10.99
7.57073  7.61741
7.64674  6.30288
7.72276  5.62558
7.79877  5.35561
7.87478  3.95333
7.9508  2.66994
8.02681  0.926166
8.10282  0.478599
8.17884  0.18826
8.25485  0.363503
8.33086  0.638031
8.40688  -0.14923
8.48289  0.984064
8.5589  0.248237
8.63491  -0.297884
8.71093  -0.00614239
8.78694  -0.152451
8.86295  0.0165455
8.93897  0.0939114
9.01498  0.170394
9.09099  0.248304
9.16701  0.652152
9.24302  2.36257
9.31903  5.86846
9.39505  14.7169
9.47106  35.7383
9.54707  101.967
9.62308  247.141
9.6991  287.659
9.77511  222.331
9.85112  160.343
9.92714  117.396
10.0031  92.5323
10.0792  80.1355
10.1552  64.0444
10.2312  42.277
10.3072  24.7614
10.3832  13.2148
10.4592  5.47175
10.5352  0.920779
10.6113  -0.38429
10.6873  -0.770123
10.7633  2.23263
10.8393  4.59074
10.9153  4.65656
10.9913  3.07574
11.0673  0.270256
11.1433  1.09255
11.2194  1.08283
11.2954  2.16583
11.3714  1.96226
11.4474  2.80377
11.5234  2.43945
11.5994  2.40933
11.6754  1.9431
11.7515  1.71065
11.8275  -0.00820126
11.9035  -0.407431
11.9795  -0.523711
12.0555  0.0766661
12.1315  1.2553
12.2075  5.00078
12.2835  11.1449
12.3596  23.4236
12.4356  55.0223
12.5116  143.58
12.5876  333.001
12.6636  505.155
12.7396  467.016
12.8156  289.171
12.8916  128.911
12.9677  55.9858
13.0437  31.9575
13.1197  21.4757
13.1957  15.219
13.2717  11.0417
13.3477  8.17671
13.4237  4.93891
13.4998  2.60004
13.5758  2.48833
13.6518  1.90582
13.7278  2.23453
13.8038  3.34947
13.8798  2.23922
13.9558  1.21459
14.0318  0.100213
14.1079  -0.544066
14.1839  -0.699501
14.2599  0.0374793
14.3359  1.35265
14.4119  3.64472
14.4879  4.9668
14.5639  7.49131
14.6399  8.07215
14.716  6.66847
14.792  3.36996
14.868  1.82686
14.944  1.48791
15.02  0.63089
15.096  0.0186915
15.172  -0.468171
15.2481  0.21457
15.3241  0.430718
15.4001  0.200729
15.4761  0.964892
15.5521  0.881888
15.6281  0.855409
15.7041  1.40784
15.7801  1.0212
15.8562  0.910188
15.9322  0.660353
16.0082  0.295515
16.0842  -0.239209
16.1602  0.344843
16.2362  0.111762
16.3122  1.34703
16.3882  2.58415
16.4643  4.70269
16.5403  8.50263
16.6163  15.0227
16.6923  22.8253
16.7683  29.0755
16.8443  31.1478
16.9203  29.5861
16.9964  26.8904
17.0724  23.7469
17.1484  20.5042
17.2244  16.7516
17.3004  14.5147
17.3764  11.7474
17.4524  8.82498
17.5284  5.97403
17.6045  3.68162
17.6805  3.14561
17.7565  2.0552
17.8325  1.71879
17.9085  2.39096
17.9845  2.70258
18.0605  2.70546
18.1365  2.65458
18.2126  3.27706
18.2886  4.21701
18.3646  6.18765
18.4406  9.51502
18.5166  15.54
18.5926  23.6761
18.6686  30.6629
18.7447  34.1337
18.8207  33.3127
18.8967  27.5542
18.9727  18.8614
19.0487  9.62386
19.1247  4.10918
19.2007  1.96957
19.2767  2.36409
19.3528  0.706245
19.4288  -0.0927825
19.5048  -0.368249
19.5808  -0.0324178
19.6568  0.520621
19.7328  0.213196
19.8088  0.302275
19.8848  -0.0243441
19.9609  0.0955818
20.0369  0.197369
20.1129  0.17271
20.1889  0.121176
20.2649  -0.0618504
20.3409  0.0900754
20.4169  0.0671765
20.493  0.18916
20.569  0.383296
20.645  0.224744
20.721  0.274816
20.797  0.560062
20.873  1.44829
20.949  1.69124
21.025  1.44214
21.1011  1.61194
21.1771  1.85717
21.2531  1.70697
21.3291  0.502993
21.4051  0.38443
21.4811  0.087265
21.5571  -0.055281
21.6331  0.12782
21.7092  0.473574
21.7852  -0.0012306
21.8612  -0.0396167
21.9372  0.159796
22.0132  -0.115076
22.0322  0.0803237

File: 25_ReMoB2_990psi_noRuby_S_P1_C1_D1w_157.dat
2.93393  0.484003
3.00995  1.31103
3.08596  1.39934
3.16197  1.67179
3.23799  0.731879
3.314  1.75613
3.39001  0.938853
3.46603  2.54925
3.54204  4.02702
3.61805  11.938
3.69407  9.28549
3.77008  3.07925
3.84609  1.60479
3.9221  0.700157
3.99812  1.4517
4.07413  0.355356
4.15014  0.288006
4.22616  0.0823142
4.30217  1.03531
4.37818  0.868507
4.4542  0.943687
4.53021  -0.00750848
4.60622  0.495649
4.68224  -0.10194
4.75825  1.03266
4.83426  1.08724
4.91027  1.26355
4.98629  0.789288
5.0623  1.12557
5.13831  0.724495
5.21433  1.0795
5.29034  0.170148
5.36635  0.871293
5.44237  1.34559
5.51838  0.1318
5.59439  0.623117
5.67041  0.813865
5.74642  0.164704
5.82243  0.507868
5.89844  0.510915
5.97446  1.00511
6.05047  1.60847
6.12648  0.711839
6.2025  0.284035
6.27851  0.525955
6.35452  0.316812
6.43054  0.208672
6.50655  -0.0548276
6.58256  0.950277
6.65857  5.6182
6.73459  3.17397
6.8106  0.0657518
6.88661  0.600645
6.96263  1.0648
7.03864  6.68309
7.11465  13.3073
7.19067  21.3648
7.26668  50.6041
7.34269  52.2555
7.41871  29.3249
7.49472  16.2125
7.57073  11.3308
7.64674  8.87192
7.72276  7.73499
7.79877  6.99906
7.87478  6.5443
7.9508  4.58756
8.02681  2.41483
8.10282  0.952414
8.17884  0.47784
8.25485  0.456245
8.33086  0.306585
8.40688  0.341973
8.48289  0.700461
8.5589  0.0940934
8.63491  -0.332693
8.71093  0.170103
8.78694  0.238325
8.86295  -0.00843537
8.93897  -0.122827
9.01498  0.649718
9.09099  0.254177
9.16701  0.694058
9.24302  1.28069
9.31903  5.44277
9.39505  11.1743
9.47106  26.8641
9.54707  73.0168
9.62308  193.327
9.6991  275.964
9.77511  238.763
9.85112  188.355
9.92714  152.141
10.0031  134.794
10.0792  126.236
10.1552  102.303
10.2312  68.4981
10.3072  37.5986
10.3832  18.8243
10.4592  7.78002
10.5352  1.93566
10.6113  -0.390894
10.6873  -0.985237
10.7633  -0.535414
10.8393  1.46734
10.9153  3.27391
10.9913  3.6651
11.0673  1.77595
11.1433  1.34428
11.2194  1.78547
11.2954  1.94928
11.3714  2.69293
11.4474  2.68263
11.5234  4.14619
11.5994  4.69421
11.6754  4.47496
11.7515  2.91408
11.8275  1.47687
11.9035  -0.00495102
11.9795  -1.14984
12.0555  0.384111
12.1315  0.679714
12.2075  3.75163
12.2835  7.45827
12.3596  17.7751
12.4356  41.7064
12.5116  108.717
12.5876  258.228
12.6636  430.699
12.7396  437.598
12.8156  299.869
12.8916  151.787
12.9677  70.8106
13.0437  39.7439
13.1197  26.8167
13.1957  19.9794
13.2717  14.6654
13.3477  9.81721
13.4237  6.77692
13.4998  4.7539
13.5758  3.95786
13.6518  3.7396
13.7278  3.53974
13.8038  3.2143
13.8798  2.8764
13.9558  1.66951
14.0318  0.774234
14.1079  -0.48434
14.1839  -0.187335
14.2599  -0.411469
14.3359  0.960133
14.4119  2.76267
14.4879  4.71243
14.5639  8.34604
14.6399  12.4674
14.716  10.5412
14.792  5.6913
14.868  2.65008
14.944  1.91842
15.02  0.931724
15.096  0.332038
15.172  -0.110957
15.2481  0.156461
15.3241  0.596596
15.4001  0.185355
15.4761  0.739758
15.5521  0.450481
15.6281  0.77749
15.7041  1.35219
15.7801  1.08367
15.8562  0.838989
15.9322  1.17105
16.0082  0.552202
16.0842  0.299859
16.1602  0.226605
16.2362  -0.0133524
16.3122  0.117171
16.3882  1.81023
16.4643  2.83583
16.5403  5.21174
16.6163  8.55237
16.6923  12.9104
16.7683  16.8273
16.8443  19.9229
16.9203  20.0011
16.9964  20.1422
17.0724  19.6714
17.1484  17.1709
17.2244  16.7864
17.3004  15.9912
17.3764  15.0583
17.4524  12.3119
17.5284  8.44493
17.6045  5.61968
17.6805  3.74492
17.7565  2.9631
17.8325  2.20426
17.9085  2.58125
17.9845  2.91285
18.0605  2.8801
18.1365  2.64578
18.2126  3.47533
18.2886  4.0102
18.3646  5.75312
18.4406  8.10429
18.5166  12.1214
18.5926  19.9146
18.6686  27.7289
18.7447  32.6341
18.8207  32.5984
18.8967  30.4229
18.9727  23.2551
19.0487  13.5332
19.1247  6.23023
19.2007  2.57693
19.2767  1.28914
19.3528  0.331468
19.4288  0.194869
19.5048  -0.193233
19.5808  -0.244191
19.6568  0.218288
19.7328  0.086441
19.8088  0.250348
19.8848  0.129692
19.9609  0.415412
20.0369  0.391037
20.1129  0.554325
20.1889  1.12812
20.2649  0.529743
20.3409  0.388633
20.4169  0.169156
20.493  -0.193512
20.569  0.25744
20.645  0.100878
20.721  0.423486
20.797  0.771105
20.873  1.19979
20.949  1.0478
21.025  1.43361
21.1011  1.84032
21.1771  1.7128
21.2531  2.1694
21.3291  0.838088
21.4051  0.630608
21.4811  0.436357
21.5571  -0.193312
21.6331  0.258302
21.7092  0.353988
21.7852  -0.0333396
21.8612  -0.259229
21.9372  0.170779
22.0132  -0.00556407
22.0322  0.0471778