Folder: remob2/data/processed/Run2_XRD (part 4)

File: 16_ReMoB2_695psi_noRuby_S_P1_C1_D1w_103.dat
2.93393  0.644381
3.00995  -0.340713
3.08596  0.814855
3.16197  1.61486
3.23799  1.08105
3.314  0.841189
3.39001  1.86338
3.46603  2.52901
3.54204  8.21001
3.61805  8.34586
3.69407  3.74048
3.77008  1.49362
3.84609  1.08533
3.9221  0.427424
3.99812  0.127805
4.07413  0.957758
4.15014  0.50062
4.22616  0.84504
4.30217  0.434966
4.37818  0.267878
4.4542  0.799789
4.53021  1.2363
4.60622  0.906118
4.68224  0.251956
4.75825  0.508702
4.83426  0.0450716
4.91027  0.595879
4.98629  0.674882
5.0623  0.656872
5.13831  1.23363
5.21433  1.69336
5.29034  0.530154
5.36635  -0.0818631
5.44237  0.312122
5.51838  1.19462
5.59439  0.752456
5.67041  1.43642
5.74642  0.134032
5.82243  1.2591
5.89844  1.77828
5.97446  2.07736
6.05047  0.759937
6.12648  0.869395
6.2025  -0.194412
6.27851  0.0600664
6.35452  0.112648
6.43054  0.309523
6.50655  3.02223
6.58256  7.01604
6.65857  0.810443
6.73459  0.819125
6.8106  0.774873
6.88661  5.03997
6.96263  10.1652
7.03864  12.9577
7.11465  28.8241
7.19067  51.5421
7.26668  31.2694
7.34269  13.2611
7.41871  6.13786
7.49472  3.27903
7.57073  2.04558
7.64674  0.969133
7.72276  0.640307
7.79877  0.321361
7.87478  0.0157219
7.9508  0.530137
8.02681  0.722849
8.10282  0.762431
8.17884  0.0475501
8.25485  0.454601
8.33086  0.418533
8.40688  -0.292933
8.48289  0.276248
8.5589  0.0356894
8.63491  0.131164
8.71093  0.323314
8.78694  -0.0547326
8.86295  0.632346
8.93897  -0.30869
9.01498  0.736461
9.09099  3.06521
9.16701  6.35519
9.24302  13.8075
9.31903  34.585
9.39505  101.552
9.47106  238.847
9.54707  281.078
9.62308  212.464
9.6991  148.132
9.77511  118.566
9.85112  107.478
9.92714  97.5219
10.0031  70.685
10.0792  46.3224
10.1552  25.0863
10.2312  10.6741
10.3072  3.68321
10.3832  0.177829
10.4592  -1.22451
10.5352  -0.512263
10.6113  3.37399
10.6873  4.23399
10.7633  3.59446
10.8393  2.17267
10.9153  2.82897
10.9913  3.39312
11.0673  3.30464
11.1433  4.07445
11.2194  4.39569
11.2954  6.2262
11.3714  7.76757
11.4474  7.23673
11.5234  4.88287
11.5994  1.93835
11.6754  0.627584
11.7515  -0.00502801
11.8275  -0.650539
11.9035  0.159892
11.9795  2.28661
12.0555  7.01773
12.1315  16.1624
12.2075  38.8427
12.2835  96.8166
12.3596  231.095
12.4356  415.128
12.5116  431.132
12.5876  263.306
12.6636  117.014
12.7396  51.8562
12.8156  30.7216
12.8916  22.8008
12.9677  18.8571
13.0437  14.9917
13.1197  11.1545
13.1957  7.81698
13.2717  6.6833
13.3477  6.46959
13.4237  6.58314
13.4998  7.57442
13.5758  7.72249
13.6518  7.1982
13.7278  5.40551
13.8038  3.57126
13.8798  1.67249
13.9558  0.59079
14.0318  -0.926155
14.1079  0.321898
14.1839  2.52757
14.2599  3.39312
14.3359  5.6704
14.4119  6.53683
14.4879  6.17788
14.5639  4.38467
14.6399  2.34332
14.716  0.369083
14.792  -0.180512
14.868  0.0891134
14.944  0.177059
15.02  -0.448978
15.096  0.0732932
15.172  0.0354133
15.2481  0.279592
15.3241  0.39597
15.4001  0.738692
15.4761  1.31514
15.5521  1.34153
15.6281  0.776773
15.7041  0.390481
15.7801  0.0633506
15.8562  0.147092
15.9322  -0.0326036
16.0082  0.30158
16.0842  1.69268
16.1602  2.90754
16.2362  6.48842
16.3122  11.2491
16.3882  18.9885
16.4643  26.74
16.5403  32.6014
16.6163  32.6775
16.6923  30.7065
16.7683  25.9097
16.8443  22.2459
16.9203  19.7407
16.9964  17.7284
17.0724  14.3294
17.1484  10.2018
17.2244  5.96929
17.3004  3.76287
17.3764  2.30874
17.4524  1.88266
17.5284  2.07938
17.6045  2.09403
17.6805  2.47726
17.7565  2.33674
17.8325  2.912
17.9085  4.12185
17.9845  5.93525
18.0605  8.33399
18.1365  13.2494
18.2126  20.433
18.2886  31.2001
18.3646  42.958
18.4406  51.7637
18.5166  51.6595
18.5926  42.6628
18.6686  28.1605
18.7447  14.7735
18.8207  6.83422
18.8967  3.92499
18.9727  2.46403
19.0487  1.26088
19.1247  -0.0804618
19.2007  -0.437614
19.2767  -0.15245
19.3528  -0.0523027
19.4288  0.281039
19.5048  0.554288
19.5808  0.458573
19.6568  0.996151
19.7328  1.16799
19.8088  0.159816
19.8848  0.0483487
19.9609  -0.29523
20.0369  -0.203546
20.1129  0.199183
20.1889  0.517253
20.2649  0.308541
20.3409  0.0176284
20.4169  0.877713
20.493  1.28967
20.569  1.71847
20.645  2.45901
20.721  1.75011
20.797  1.86272
20.873  1.21042
20.949  1.09272
21.025  0.657727
21.1011  0.0536528
21.1771  0.259551
21.2531  0.900228
21.3291  0.31929
21.4051  0.0168211
21.4811  -0.0803995
21.5571  0.215536
21.6331  0.0416051
21.7092  0.41293
21.7852  0.0730327
21.8612  -0.25875
21.9372  0.288467
22.0132  -0.472064
22.0322  0.281087

File: 17_ReMoB2_725psi_noRuby_S_P1_C1_D1w_109.dat
2.93393  0.397314
3.00995  0.0899378
3.08596  0.420609
3.16197  0.403331
3.23799  1.38441
3.314  1.8536
3.39001  1.08956
3.46603  2.74435
3.54204  7.88707
3.61805  13.8729
3.69407  3.69961
3.77008  2.00678
3.84609  0.843103
3.9221  1.18336
3.99812  0.98051
4.07413  0.399863
4.15014  1.012
4.22616  1.34992
4.30217  1.26871
4.37818  0.57784
4.4542  0.842577
4.53021  0.897062
4.60622  0.58397
4.68224  0.209086
4.75825  1.15741
4.83426  0.968423
4.91027  0.945044
4.98629  0.656943
5.0623  0.875412
5.13831  0.57071
5.21433  -0.069948
5.29034  1.90138
5.36635  0.284876
5.44237  0.33443
5.51838  0.623554
5.59439  -0.111702
5.67041  0.986318
5.74642  0.304555
5.82243  1.04157
5.89844  0.690471
5.97446  1.3065
6.05047  1.27139
6.12648  0.713649
6.2025  0.0721592
6.27851  0.424399
6.35452  0.476025
6.43054  0.454497
6.50655  1.39242
6.58256  6.18509
6.65857  2.61911
6.73459  0.344966
6.8106  0.876263
6.88661  2.90165
6.96263  8.17379
7.03864  10.7389
7.11465  25.5414
7.19067  59.5243
7.26668  44.9307
7.34269  20.6244
7.41871  9.61567
7.49472  4.83909
7.57073  3.02685
7.64674  1.9631
7.72276  1.01967
7.79877  -0.204084
7.87478  0.356903
7.9508  0.270125
8.02681  0.700244
8.10282  0.316281
8.17884  0.709723
8.25485  1.00625
8.33086  0.923013
8.40688  0.199684
8.48289  0.0119829
8.5589  0.73606
8.63491  0.206459
8.71093  -0.0896727
8.78694  -0.740129
8.86295  -0.259155
8.93897  0.11527
9.01498  0.767198
9.09099  2.1968
9.16701  5.12461
9.24302  11.5992
9.31903  26.278
9.39505  71.4115
9.47106  193.603
9.54707  288.202
9.62308  236.625
9.6991  158.652
9.77511  118.318
9.85112  109.71
9.92714  106.826
10.0031  83.5556
10.0792  55.565
10.1552  30.4655
10.2312  13.9626
10.3072  5.53763
10.3832  1.67434
10.4592  -0.779377
10.5352  -0.920283
10.6113  0.312647
10.6873  2.3022
10.7633  2.64252
10.8393  3.35455
10.9153  2.5477
10.9913  2.14487
11.0673  1.74479
11.1433  2.82921
11.2194  3.66236
11.2954  6.17387
11.3714  8.08397
11.4474  8.87026
11.5234  5.66888
11.5994  2.77859
11.6754  1.33389
11.7515  -0.282022
11.8275  -0.723105
11.9035  -0.266841
11.9795  1.59913
12.0555  5.25637
12.1315  12.058
12.2075  28.763
12.2835  69.609
12.3596  176.728
12.4356  364.868
12.5116  465.155
12.5876  333.133
12.6636  163.588
12.7396  69.6571
12.8156  35.7594
12.8916  24.2525
12.9677  19.3411
13.0437  15.1489
13.1197  12.1018
13.1957  9.18258
13.2717  7.93608
13.3477  7.80268
13.4237  7.71972
13.4998  9.2265
13.5758  9.87778
13.6518  9.90998
13.7278  7.26602
13.8038  4.90981
13.8798  2.32407
13.9558  0.572104
14.0318  -0.368884
14.1079  -0.732478
14.1839  1.11527
14.2599  2.20188
14.3359  4.79249
14.4119  7.50178
14.4879  7.06691
14.5639  5.91195
14.6399  3.59619
14.716  1.37911
14.792  0.347556
14.868  -0.486422
14.944  0.41496
15.02  -0.0865164
15.096  -0.0357139
15.172  0.200536
15.2481  0.360152
15.3241  -0.0259026
15.4001  0.303504
15.4761  0.68397
15.5521  0.888176
15.6281  0.878068
15.7041  0.407701
15.7801  0.0602791
15.8562  0.216746
15.9322  -0.129447
16.0082  0.127111
16.0842  0.739389
16.1602  2.42928
16.2362  4.42381
16.3122  8.32684
16.3882  13.9934
16.4643  21.2595
16.5403  28.0041
16.6163  30.2028
16.6923  29.4047
16.7683  27.1083
16.8443  23.7776
16.9203  20.0071
16.9964  18.0364
17.0724  16.8047
17.1484  14.5472
17.2244  9.3951
17.3004  5.71463
17.3764  3.62669
17.4524  1.97776
17.5284  1.76458
17.6045  1.4733
17.6805  2.36379
17.7565  1.96626
17.8325  2.73095
17.9085  3.22977
17.9845  4.27931
18.0605  6.41335
18.1365  10.2131
18.2126  15.9327
18.2886  24.2045
18.3646  34.3854
18.4406  43.7003
18.5166  49.0623
18.5926  47.0184
18.6686  36.4479
18.7447  22.2871
18.8207  11.2206
18.8967  5.42527
18.9727  3.81384
19.0487  2.16668
19.1247  0.666462
19.2007  -0.139921
19.2767  0.147521
19.3528  -0.0274726
19.4288  0.0773545
19.5048  0.117646
19.5808  0.557883
19.6568  0.776965
19.7328  1.05429
19.8088  0.926915
19.8848  0.43813
19.9609  0.0432852
20.0369  -0.139866
20.1129  0.0624558
20.1889  -0.0497293
20.2649  0.553728
20.3409  0.892677
20.4169  0.566722
20.493  0.701127
20.569  1.16384
20.645  1.85372
20.721  1.60246
20.797  1.50009
20.873  1.3073
20.949  1.51695
21.025  0.673825
21.1011  0.246462
21.1771  0.046318
21.2531  0.576058
21.3291  0.139461
21.4051  0.0992143
21.4811  0.162032
21.5571  -0.267776
21.6331  0.061706
21.7092  0.64192
21.7852  0.0752456
21.8612  -0.184563
21.9372  0.432925
22.0132  -0.31411
22.0322  0.219189

File: 18_ReMoB2_755psi_noRuby_S_P1_C1_D1w_115.dat
2.93393  0.375831
3.00995  1.22769
3.08596  1.53108
3.16197  0.821392
3.23799  0.854423
3.314  1.30305
3.39001  1.07593
3.46603  1.01231
3.54204  6.06371
3.61805  11.6203
3.69407  3.53222
3.77008  1.60227
3.84609  0.525368
3.9221  0.770027
3.99812  0.538585
4.07413  0.0224288
4.15014  0.63759
4.22616  0.533754
4.30217  0.00457048
4.37818  0.347546
4.4542  -0.0359234
4.53021  0.792408
4.60622  0.0574485
4.68224  0.284945
4.75825  0.242718
4.83426  0.490194
4.91027  0.195244
4.98629  0.0620108
5.0623  0.267377
5.13831  0.644646
5.21433  0.811813
5.29034  1.02956
5.36635  0.638607
5.44237  0.154249
5.51838  0.00351704
5.59439  0.519156
5.67041  0.517537
5.74642  0.0787523
5.82243  0.753708
5.89844  0.115358
5.97446  2.00619
6.05047  0.955499
6.12648  0.336178
6.2025  0.311697
6.27851  0.38924
6.35452  0.095843
6.43054  0.0817757
6.50655  1.32033
6.58256  5.02741
6.65857  2.91922
6.73459  1.52918
6.8106  0.282858
6.88661  2.20148
6.96263  6.84705
7.03864  10.7836
7.11465  19.9173
7.19067  54.5911
7.26668  49.2922
7.34269  22.5076
7.41871  9.58207
7.49472  5.14173
7.57073  3.24945
7.64674  1.54765
7.72276  1.288
7.79877  0.827975
7.87478  0.590889
7.9508  1.24302
8.02681  0.34643
8.10282  0.170638
8.17884  0.210358
8.25485  1.12255
8.33086  0.471544
8.40688  0.727769
8.48289  -0.0946811
8.5589  0.884641
8.63491  0.0329418
8.71093  -0.0496156
8.78694  -0.282989
8.86295  -0.679077
8.93897  0.304275
9.01498  0.508833
9.09099  1.97901
9.16701  4.71902
9.24302  9.88324
9.31903  21.7235
9.39505  55.9453
9.47106  154.366
9.54707  277.791
9.62308  259.467
9.6991  181.245
9.77511  129.475
9.85112  101.088
9.92714  91.4994
10.0031  77.6709
10.0792  56.1795
10.1552  34.7134
10.2312  17.7763
10.3072  7.66713
10.3832  2.47902
10.4592  -0.1842
10.5352  -1.08075
10.6113  -0.00936353
10.6873  2.62478
10.7633  4.14587
10.8393  3.84859
10.9153  2.87137
10.9913  1.4641
11.0673  1.90727
11.1433  3.087
11.2194  3.28911
11.2954  3.69037
11.3714  4.79496
11.4474  5.46144
11.5234  5.00973
11.5994  2.99767
11.6754  0.446913
11.7515  -0.429059
11.8275  -0.616079
11.9035  -0.340539
11.9795  1.20683
12.0555  3.5988
12.1315  9.93872
12.2075  20.6202
12.2835  47.3887
12.3596  118.785
12.4356  273.938
12.5116  456.149
12.5876  422.458
12.6636  246.668
12.7396  109.4
12.8156  49.4265
12.8916  30.0899
12.9677  21.917
13.0437  16.5014
13.1197  12.5654
13.1957  9.58213
13.2717  5.63053
13.3477  5.80257
13.4237  4.64003
13.4998  5.93575
13.5758  6.5615
13.6518  6.23962
13.7278  4.71627
13.8038  3.59209
13.8798  1.69278
13.9558  0.129182
14.0318  -0.103427
14.1079  -0.637151
14.1839  0.857788
14.2599  1.68862
14.3359  4.1926
14.4119  6.24791
14.4879  6.71546
14.5639  5.61822
14.6399  4.48518
14.716  2.11505
14.792  0.296431
14.868  0.240891
14.944  0.130131
15.02  -0.430555
15.096  0.4557
15.172  0.311988
15.2481  0.689676
15.3241  0.588633
15.4001  1.0262
15.4761  1.31265
15.5521  0.662196
15.6281  1.16036
15.7041  0.582007
15.7801  0.923792
15.8562  0.550744
15.9322  -0.170528
16.0082  0.362997
16.0842  0.584863
16.1602  2.21204
16.2362  3.9561
16.3122  7.67059
16.3882  13.5561
16.4643  23.2593
16.5403  33.344
16.6163  38.1919
16.6923  36.4405
16.7683  32.2486
16.8443  26.6019
16.9203  23.2491
16.9964  18.7338
17.0724  15.8949
17.1484  12.9191
17.2244  9.90615
17.3004  7.1328
17.3764  3.79793
17.4524  2.12693
17.5284  1.52147
17.6045  2.14943
17.6805  1.89252
17.7565  2.08742
17.8325  2.26188
17.9085  2.63829
17.9845  3.466
18.0605  4.8935
18.1365  7.55197
18.2126  11.5346
18.2886  18.2737
18.3646  27.6812
18.4406  38.8679
18.5166  47.1765
18.5926  48.1954
18.6686  41.2198
18.7447  28.7451
18.8207  15.3319
18.8967  6.36665
18.9727  3.39904
19.0487  2.549
19.1247  1.02023
19.2007  -0.0799063
19.2767  0.154712
19.3528  0.151631
19.4288  0.104657
19.5048  0.0912875
19.5808  0.467969
19.6568  0.400822
19.7328  0.162545
19.8088  0.557119
19.8848  0.440516
19.9609  -0.174596
20.0369  0.093842
20.1129  -0.0704084
20.1889  0.127005
20.2649  0.499701
20.3409  0.213296
20.4169  -0.0229379
20.493  0.255876
20.569  0.335274
20.645  1.20081
20.721  1.4194
20.797  1.59942
20.873  1.71757
20.949  1.28994
21.025  0.765497
21.1011  0.645751
21.1771  0.166297
21.2531  0.411421
21.3291  0.460367
21.4051  0.383441
21.4811  -0.24534
21.5571  0.193534
21.6331  0.117017
21.7092  0.189853
21.7852  0.108167
21.8612  -0.179649
21.9372  0.270198
22.0132  -0.393646
22.0322  0.238929

File: 19_ReMoB2_785psi_noRuby_S_P1_C1_D1w_121.dat
2.93393  0.464643
3.00995  0.462643
3.08596  0.753121
3.16197  0.539086
3.23799  0.334279
3.314  0.459202
3.39001  1.58532
3.46603  1.36561
3.54204  5.87612
3.61805  16.0439
3.69407  4.83661
3.77008  1.81451
3.84609  0.772204
3.9221  0.171989
3.99812  0.639727
4.07413  0.581815
4.15014  1.38636
4.22616  1.23702
4.30217  1.12392
4.37818  0.654685
4.4542  0.00715997
4.53021  0.622361
4.60622  0.599995
4.68224  0.738866
4.75825  0.282074
4.83426  0.442248
4.91027  0.817999
4.98629  0.510364
5.0623  0.0420135
5.13831  1.27405
5.21433  0.430893
5.29034  0.658944
5.36635  0.760578
5.44237  -0.117955
5.51838  0.904236
5.59439  1.08893
5.67041  0.234273
5.74642  1.05892
5.82243  -0.253203
5.89844  1.05326
5.97446  2.03824
6.05047  1.47312
6.12648  0.407593
6.2025  0.646667
6.27851  0.0570419
6.35452  0.289915
6.43054  0.926225
6.50655  0.921944
6.58256  4.5289
6.65857  4.2224
6.73459  1.20148
6.8106  -0.0774159
6.88661  1.74987
6.96263  5.20226
7.03864  10.6063
7.11465  17.0907
7.19067  49.1575
7.26668  57.0563
7.34269  30.1835
7.41871  13.4773
7.49472  7.43783
7.57073  5.45352
7.64674  2.45752
7.72276  2.14235
7.79877  0.856577
7.87478  0.745952
7.9508  0.312584
8.02681  0.326672
8.10282  0.735073
8.17884  1.02832
8.25485  0.49779
8.33086  0.262997
8.40688  -0.279808
8.48289  0.36003
8.5589  0.63301
8.63491  0.0513069
8.71093  0.207945
8.78694  -0.264584
8.86295  -0.210948
8.93897  -0.292621
9.01498  0.219623
9.09099  1.46955
9.16701  3.38545
9.24302  7.38437
9.31903  16.7401
9.39505  40.2218
9.47106  113.674
9.54707  252.763
9.62308  278.467
9.6991  201.91
9.77511  141.01
9.85112  110.81
9.92714  104.93
10.0031  94.2068
10.0792  69.7399
10.1552  43.1995
10.2312  23.5696
10.3072  10.9167
10.3832  4.05998
10.4592  0.291331
10.5352  -1.20089
10.6113  -1.07961
10.6873  1.84906
10.7633  2.88941
10.8393  3.5306
10.9153  4.10868
10.9913  1.78554
11.0673  1.46386
11.1433  1.68649
11.2194  2.7045
11.2954  3.76354
11.3714  5.91847
11.4474  7.14287
11.5234  6.32271
11.5994  4.55293
11.6754  2.37065
11.7515  -0.374586
11.8275  -0.0819196
11.9035  -0.618789
11.9795  0.462679
12.0555  1.97946
12.1315  6.39955
12.2075  15.519
12.2835  34.7074
12.3596  90.0174
12.4356  221.421
12.5116  422.026
12.5876  461.021
12.6636  306.426
12.7396  148.936
12.8156  65.0232
12.8916  34.7392
12.9677  22.4966
13.0437  17.0737
13.1197  13.3151
13.1957  10.2182
13.2717  7.31685
13.3477  6.74909
13.4237  5.97003
13.4998  7.99546
13.5758  8.65779
13.6518  8.52062
13.7278  7.87532
13.8038  5.55552
13.8798  3.31498
13.9558  0.904638
14.0318  -0.173137
14.1079  -0.735476
14.1839  -0.222013
14.2599  0.522495
14.3359  3.03409
14.4119  5.28526
14.4879  7.60741
14.5639  7.94848
14.6399  5.64763
14.716  2.13261
14.792  1.03511
14.868  0.180245
14.944  0.0805973
15.02  -0.465162
15.096  -0.0880679
15.172  0.0282293
15.2481  0.25758
15.3241  -0.0662703
15.4001  0.343891
15.4761  0.948453
15.5521  1.28306
15.6281  1.05673
15.7041  0.664459
15.7801  0.830095
15.8562  0.188125
15.9322  0.544451
16.0082  0.548668
16.0842  0.394274
16.1602  1.04398
16.2362  2.19941
16.3122  4.62365
16.3882  8.29185
16.4643  14.0611
16.5403  22.6773
16.6163  28.1921
16.6923  30.4351
16.7683  29.5043
16.8443  27.0612
16.9203  24.4687
16.9964  20.3013
17.0724  18.1433
17.1484  16.0212
17.2244  13.8566
17.3004  9.87626
17.3764  6.56525
17.4524  3.58918
17.5284  2.31656
17.6045  1.7791
17.6805  2.22723
17.7565  1.61368
17.8325  2.3527
17.9085  2.07982
17.9845  3.06313
18.0605  4.86392
18.1365  5.99539
18.2126  9.53047
18.2886  14.3831
18.3646  21.7066
18.4406  31.1946
18.5166  39.025
18.5926  42.8291
18.6686  41.9136
18.7447  33.7302
18.8207  20.6389
18.8967  9.64481
18.9727  4.84366
19.0487  3.64844
19.1247  2.77029
19.2007  0.810825
19.2767  -0.134759
19.3528  -0.201482
19.4288  0.189974
19.5048  0.0288899
19.5808  0.463068
19.6568  0.2599
19.7328  0.306919
19.8088  0.38611
19.8848  0.753374
19.9609  0.441586
20.0369  -0.12722
20.1129  0.102466
20.1889  0.101626
20.2649  0.168531
20.3409  0.128481
20.4169  0.345067
20.493  -0.0363518
20.569  0.460421
20.645  0.486316
20.721  0.958649
20.797  1.42327
20.873  1.75343
20.949  1.35586
21.025  1.34614
21.1011  0.907767
21.1771  0.64532
21.2531  0.869223
21.3291  0.2874
21.4051  0.0912417
21.4811  -0.126986
21.5571  0.0884205
21.6331  -0.0911769
21.7092  0.140123
21.7852  0.145628
21.8612  -0.159624
21.9372  0.0655746
22.0132  -0.425875
22.0322  0.236366

File: 20_ReMoB2_815psi_noRuby_S_P1_C1_D1w_127.dat
2.93393  0.497345
3.00995  1.36318
3.08596  0.148836
3.16197  0.367839
3.23799  0.615883
3.314  1.18304
3.39001  1.97898
3.46603  1.77007
3.54204  4.22659
3.61805  9.24576
3.69407  3.46005
3.77008  2.3239
3.84609  1.13964
3.9221  1.98671
3.99812  1.13243
4.07413  0.525848
4.15014  0.56948
4.22616  0.421647
4.30217  0.755648
4.37818  0.660136
4.4542  0.633043
4.53021  0.810419
4.60622  0.859379
4.68224  0.392091
4.75825  0.649632
4.83426  0.0246747
4.91027  0.0469874
4.98629  0.473556
5.0623  0.664422
5.13831  1.20111
5.21433  0.208809
5.29034  1.31748
5.36635  -0.0503937
5.44237  0.678952
5.51838  0.44269
5.59439  0.359742
5.67041  0.404299
5.74642  0.231527
5.82243  -0.0121858
5.89844  0.857646
5.97446  3.38584
6.05047  2.91782
6.12648  1.40947
6.2025  0.0408559
6.27851  0.148517
6.35452  -0.154602
6.43054  0.90182
6.50655  1.18094
6.58256  4.44482
6.65857  5.68563
6.73459  1.44246
6.8106  -0.0803515
6.88661  1.04689
6.96263  5.97973
7.03864  13.9524
7.11465  16.536
7.19067  31.7464
7.26668  43.065
7.34269  24.1056
7.41871  11.8198
7.49472  6.70008
7.57073  3.52254
7.64674  2.68351
7.72276  1.69977
7.79877  1.25032
7.87478  0.684348
7.9508  0.337595
8.02681  0.584011
8.10282  0.0246812
8.17884  0.462282
8.25485  0.372907
8.33086  0.564049
8.40688  0.0847771
8.48289  0.344264
8.5589  0.362739
8.63491  0.0357613
8.71093  0.182613
8.78694  0.0216716
8.86295  0.292116
8.93897  -0.236349
9.01498  -0.0107493
9.09099  0.388679
9.16701  2.04397
9.24302  4.6481
9.31903  11.695
9.39505  30.4868
9.47106  87.9928
9.54707  223.635
9.62308  288.759
9.6991  236.165
9.77511  172.826
9.85112  122.059
9.92714  92.347
10.0031  75.9693
10.0792  60.4238
10.1552  41.9629
10.2312  27.7812
10.3072  15.4531
10.3832  7.2977
10.4592  2.10545
10.5352  -0.690862
10.6113  -0.639526
10.6873  4.1508
10.7633  7.0146
10.8393  5.15445
10.9153  3.4912
10.9913  1.60762
11.0673  2.19526
11.1433  4.02222
11.2194  4.20445
11.2954  2.73675
11.3714  1.44995
11.4474  2.68466
11.5234  2.07654
11.5994  1.19946
11.6754  0.99661
11.7515  0.0839136
11.8275  -0.401181
11.9035  -0.644486
11.9795  0.0138017
12.0555  1.02827
12.1315  5.03118
12.2075  10.5896
12.2835  23.7312
12.3596  58.2609
12.4356  148.846
12.5116  335.441
12.5876  483.336
12.6636  422.235
12.7396  245.388
12.8156  102.371
12.8916  48.1455
12.9677  29.3874
13.0437  20.6592
13.1197  15.1906
13.1957  10.3424
13.2717  6.7985
13.3477  4.26048
13.4237  2.35172
13.4998  1.88789
13.5758  2.64845
13.6518  2.88643
13.7278  3.28909
13.8038  2.74423
13.8798  1.38904
13.9558  0.160306
14.0318  -0.493013
14.1079  -0.171389
14.1839  0.607965
14.2599  1.74974
14.3359  4.79229
14.4119  6.10425
14.4879  6.76117
14.5639  7.47725
14.6399  7.43462
14.716  5.49039
14.792  2.19342
14.868  0.848919
14.944  0.386564
15.02  -0.194541
15.096  -0.105517
15.172  -0.23971
15.2481  0.100889
15.3241  0.191042
15.4001  0.616412
15.4761  1.09369
15.5521  0.962624
15.6281  1.00156
15.7041  0.598162
15.7801  0.723736
15.8562  -0.0620621
15.9322  0.387803
16.0082  -0.140841
16.0842  -0.106924
16.1602  0.55195
16.2362  1.66572
16.3122  3.48405
16.3882  7.29481
16.4643  13.4423
16.5403  22.7173
16.6163  33.0633
16.6923  37.5064
16.7683  36.6381
16.8443  32.4154
16.9203  27.7565
16.9964  22.8474
17.0724  19.3885
17.1484  15.5618
17.2244  12.1563
17.3004  8.83191
17.3764  6.10267
17.4524  3.61852
17.5284  2.46557
17.6045  2.6009
17.6805  2.65648
17.7565  2.79511
17.8325  3.01859
17.9085  2.82153
17.9845  3.1092
18.0605  3.46671
18.1365  4.03183
18.2126  5.93497
18.2886  10.1809
18.3646  15.4072
18.4406  24.1831
18.5166  33.7719
18.5926  41.1611
18.6686  41.3004
18.7447  33.6737
18.8207  22.7285
18.8967  12.4658
18.9727  4.96619
19.0487  2.43409
19.1247  1.28848
19.2007  0.349068
19.2767  -0.0546488
19.3528  0.373589
19.4288  0.290944
19.5048  0.0021605
19.5808  0.380412
19.6568  0.149644
19.7328  0.17847
19.8088  -0.0906451
19.8848  0.196721
19.9609  0.379716
20.0369  -0.161435
20.1129  0.121732
20.1889  0.0725154
20.2649  0.135777
20.3409  0.0246642
20.4169  0.375861
20.493  -0.0545612
20.569  0.323261
20.645  0.613214
20.721  1.45021
20.797  1.78167
20.873  1.61945
20.949  1.65842
21.025  1.498
21.1011  0.532283
21.1771  0.475632
21.2531  0.471807
21.3291  0.418937
21.4051  0.189522
21.4811  -0.0763323
21.5571  -0.196473
21.6331  0.200571
21.7092  0.303084
21.7852  -0.0173107
21.8612  -0.177703
21.9372  0.159447
22.0132  -0.354923
22.0322  0.205209