Folder: remob2/data/processed/Run2_XRD (part 2)

File: 6_ReMoB2_470psi_39p0GPa_S_P1_C1_D1w_043.dat
2.93393  0.659486
3.00995  0.345368
3.08596  0.748111
3.16197  1.14154
3.23799  1.4308
3.314  1.40986
3.39001  5.25866
3.46603  21.6636
3.54204  21.3043
3.61805  2.36465
3.69407  0.919578
3.77008  1.04121
3.84609  0.288209
3.9221  0.0535074
3.99812  0.888796
4.07413  0.421447
4.15014  0.715856
4.22616  0.666716
4.30217  1.46731
4.37818  1.78761
4.4542  0.419413
4.53021  0.204461
4.60622  0.560666
4.68224  1.13304
4.75825  1.35222
4.83426  0.695863
4.91027  0.441391
4.98629  0.655607
5.0623  -0.154449
5.13831  0.177363
5.21433  0.172496
5.29034  0.513067
5.36635  0.241927
5.44237  0.432279
5.51838  0.449118
5.59439  0.0649942
5.67041  0.249387
5.74642  7.95323
5.82243  8.43052
5.89844  3.15997
5.97446  2.18133
6.05047  0.812252
6.12648  0.409325
6.2025  0.343696
6.27851  2.95574
6.35452  12.1241
6.43054  37.8729
6.50655  8.78186
6.58256  3.62585
6.65857  10.3391
6.73459  10.6623
6.8106  9.89114
6.88661  27.8541
6.96263  87.2575
7.03864  101.732
7.11465  30.0839
7.19067  7.31469
7.26668  2.7283
7.34269  0.963284
7.41871  0.876865
7.49472  -0.0608628
7.57073  0.593553
7.64674  -0.00807631
7.72276  0.124257
7.79877  0.858365
7.87478  0.830782
7.9508  0.404733
8.02681  0.271944
8.10282  0.0629881
8.17884  1.14967
8.25485  0.739745
8.33086  0.00678361
8.40688  0.399839
8.48289  -0.0923765
8.5589  0.47321
8.63491  0.0980072
8.71093  0.609695
8.78694  0.366303
8.86295  -0.0331332
8.93897  -0.156825
9.01498  1.29076
9.09099  4.71253
9.16701  13.5708
9.24302  39.4402
9.31903  129.579
9.39505  440.044
9.47106  674.895
9.54707  410.783
9.62308  260.093
9.6991  157.124
9.77511  61.3509
9.85112  21.2325
9.92714  6.42451
10.0031  1.15586
10.0792  -0.797957
10.1552  -0.0270961
10.2312  1.41136
10.3072  3.49509
10.3832  8.51827
10.4592  20.9617
10.5352  28.411
10.6113  27.7238
10.6873  21.3228
10.7633  19.8517
10.8393  21.628
10.9153  26.1136
10.9913  29.7185
11.0673  30.3753
11.1433  28.6296
11.2194  23.6474
11.2954  13.8293
11.3714  6.19778
11.4474  3.972
11.5234  1.95311
11.5994  1.19434
11.6754  0.429189
11.7515  0.159936
11.8275  -0.793271
11.9035  -0.876773
11.9795  -0.674811
12.0555  1.94855
12.1315  6.12129
12.2075  10.8649
12.2835  17.9802
12.3596  33.1852
12.4356  67.6236
12.5116  113.841
12.5876  125.876
12.6636  84.2519
12.7396  56.487
12.8156  44.7313
12.8916  40.4477
12.9677  38.54
13.0437  37.4907
13.1197  38.9027
13.1957  47.3113
13.2717  76.0093
13.3477  121.74
13.4237  64.5647
13.4998  21.5007
13.5758  5.09804
13.6518  0.281714
13.7278  0.789674
13.8038  2.10645
13.8798  3.30248
13.9558  5.11565
14.0318  6.3762
14.1079  8.09718
14.1839  7.34744
14.2599  2.70458
14.3359  0.933379
14.4119  -0.660518
14.4879  -0.382837
14.5639  -0.487193
14.6399  0.0496329
14.716  0.687597
14.792  0.359379
14.868  0.417389
14.944  0.671975
15.02  0.538342
15.096  0.182226
15.172  0.572432
15.2481  0.0190277
15.3241  0.21199
15.4001  0.135002
15.4761  1.75759
15.5521  1.55542
15.6281  3.43067
15.7041  5.19698
15.7801  8.38338
15.8562  13.889
15.9322  20.7938
16.0082  20.8748
16.0842  22.9211
16.1602  26.9588
16.2362  29.3445
16.3122  28.1991
16.3882  24.4344
16.4643  17.728
16.5403  10.469
16.6163  6.05702
16.6923  4.0746
16.7683  3.03483
16.8443  1.49861
16.9203  1.48855
16.9964  0.84027
17.0724  0.298719
17.1484  1.04581
17.2244  1.85089
17.3004  2.61724
17.3764  4.98288
17.4524  8.60153
17.5284  15.4483
17.6045  28.0825
17.6805  48.5982
17.7565  75.5624
17.8325  93.0203
17.9085  77.6699
17.9845  56.8977
18.0605  40.8244
18.1365  27.3648
18.2126  16.1146
18.2886  9.80211
18.3646  6.25484
18.4406  3.85508
18.5166  2.58932
18.5926  1.94215
18.6686  3.34022
18.7447  5.40369
18.8207  7.93398
18.8967  10.728
18.9727  12.4356
19.0487  9.21197
19.1247  3.47013
19.2007  -0.279404
19.2767  -0.742439
19.3528  -0.0847384
19.4288  1.7673
19.5048  4.4759
19.5808  9.65022
19.6568  17.3997
19.7328  19.551
19.8088  12.3891
19.8848  5.46542
19.9609  2.43931
20.0369  1.00523
20.1129  0.115779
20.1889  0.0486458
20.2649  0.195614
20.3409  0.365234
20.4169  0.166579
20.493  0.158367
20.569  0.218273
20.645  -0.132609
20.721  0.0315334
20.797  0.14199
20.873  0.487446
20.949  0.738308
21.025  0.696667
21.1011  0.546829
21.1771  0.589209
21.2531  0.48417
21.3291  0.0391723
21.4051  0.105063
21.4811  0.019236
21.5571  0.212553
21.6331  0.119575
21.7092  0.0557566
21.7852  0.382658
21.8612  0.137377
21.9372  0.159498
22.0132  -0.0224316
22.0322  0.0400988

File: 7_ReMoB2_490psi_45p0GPa_S_P1_C1_D1w_049.dat
2.93393  0.576175
3.00995  0.786068
3.08596  0.765226
3.16197  0.308112
3.23799  1.31288
3.314  0.964775
3.39001  3.74198
3.46603  19.5542
3.54204  27.8273
3.61805  4.2162
3.69407  1.8072
3.77008  1.62264
3.84609  -0.137428
3.9221  0.136563
3.99812  0.659647
4.07413  0.219948
4.15014  0.898649
4.22616  1.09056
4.30217  0.944973
4.37818  0.285465
4.4542  0.626704
4.53021  0.922523
4.60622  1.08144
4.68224  0.460485
4.75825  0.522345
4.83426  0.419152
4.91027  0.52846
4.98629  0.758066
5.0623  -0.0532926
5.13831  1.3553
5.21433  0.138792
5.29034  0.538214
5.36635  1.06943
5.44237  0.169416
5.51838  0.205271
5.59439  0.649901
5.67041  1.19002
5.74642  4.17928
5.82243  6.99146
5.89844  2.08511
5.97446  1.25775
6.05047  1.66548
6.12648  0.328766
6.2025  0.0185449
6.27851  2.28986
6.35452  6.79713
6.43054  29.8189
6.50655  10.8165
6.58256  2.92867
6.65857  6.416
6.73459  15.1328
6.8106  9.87097
6.88661  17.4736
6.96263  67.3612
7.03864  107.107
7.11465  42.4195
7.19067  11.0709
7.26668  3.35082
7.34269  1.61731
7.41871  1.36955
7.49472  0.243894
7.57073  -0.0959731
7.64674  0.656926
7.72276  0.31918
7.79877  0.766119
7.87478  0.206337
7.9508  0.289196
8.02681  0.364486
8.10282  0.453039
8.17884  0.0485229
8.25485  0.0367244
8.33086  0.530713
8.40688  0.797146
8.48289  -0.131458
8.5589  -0.0943449
8.63491  0.707733
8.71093  0.376218
8.78694  0.166104
8.86295  0.0736319
8.93897  0.955528
9.01498  0.943534
9.09099  4.17649
9.16701  12.3104
9.24302  29.0492
9.31903  68.9519
9.39505  204.796
9.47106  495.397
9.54707  502.935
9.62308  320.564
9.6991  197.377
9.77511  100.506
9.85112  38.3086
9.92714  14.1351
10.0031  4.5743
10.0792  0.931855
10.1552  -0.935087
10.2312  -0.186488
10.3072  0.268872
10.3832  3.20029
10.4592  10.0114
10.5352  20.2205
10.6113  27.6198
10.6873  26.5515
10.7633  19.4487
10.8393  20.4753
10.9153  24.8339
10.9913  30.4376
11.0673  31.7877
11.1433  31.7913
11.2194  29.9892
11.2954  30.3914
11.3714  17.3233
11.4474  8.89208
11.5234  3.52071
11.5994  1.74359
11.6754  1.20597
11.7515  -0.387715
11.8275  -0.515107
11.9035  -0.995106
11.9795  -0.0327626
12.0555  2.81528
12.1315  6.28699
12.2075  11.4032
12.2835  15.9285
12.3596  24.0068
12.4356  37.7996
12.5116  69.865
12.5876  123.037
12.6636  149.713
12.7396  94.5431
12.8156  53.9951
12.8916  41.6946
12.9677  37.36
13.0437  35.101
13.1197  33.4254
13.1957  33.1604
13.2717  33.7451
13.3477  43.8344
13.4237  59.2587
13.4998  46.0523
13.5758  18.144
13.6518  4.06216
13.7278  -0.410483
13.8038  0.407601
13.8798  2.0524
13.9558  3.25537
14.0318  5.90366
14.1079  9.6764
14.1839  14.7611
14.2599  12.4879
14.3359  5.65462
14.4119  0.64769
14.4879  -0.719782
14.5639  -0.561122
14.6399  -0.0710468
14.716  0.0668304
14.792  0.454664
14.868  0.756408
14.944  0.644117
15.02  -0.00766849
15.096  0.808227
15.172  0.339758
15.2481  -0.0872163
15.3241  0.0947872
15.4001  0.187116
15.4761  0.281728
15.5521  1.66591
15.6281  2.02946
15.7041  3.09619
15.7801  4.79497
15.8562  7.26266
15.9322  11.7353
16.0082  18.8706
16.0842  25.1844
16.1602  33.427
16.2362  30.4924
16.3122  30.6085
16.3882  30.9509
16.4643  28.0916
16.5403  20.3446
16.6163  12.4008
16.6923  7.83428
16.7683  5.06939
16.8443  3.04651
16.9203  2.35232
16.9964  1.49037
17.0724  1.03325
17.1484  1.18089
17.2244  1.33418
17.3004  1.73904
17.3764  3.54246
17.4524  4.62742
17.5284  7.42852
17.6045  11.5726
17.6805  21.3106
17.7565  38.1225
17.8325  60.2722
17.9085  74.4456
17.9845  72.4576
18.0605  59.3266
18.1365  42.0404
18.2126  26.9969
18.2886  15.1714
18.3646  8.04085
18.4406  4.64404
18.5166  2.75407
18.5926  1.50959
18.6686  0.621478
18.7447  0.900296
18.8207  1.87265
18.8967  4.49701
18.9727  6.90508
19.0487  5.9982
19.1247  4.15229
19.2007  1.89695
19.2767  0.0461308
19.3528  -0.744084
19.4288  -0.38656
19.5048  0.813066
19.5808  2.87679
19.6568  6.87173
19.7328  13.8577
19.8088  16.3036
19.8848  11.2444
19.9609  6.24271
20.0369  2.8044
20.1129  1.09393
20.1889  0.494794
20.2649  0.195432
20.3409  0.111078
20.4169  0.0494605
20.493  0.275138
20.569  0.279903
20.645  -0.00884215
20.721  0.104615
20.797  0.0727471
20.873  -0.0805496
20.949  0.150368
21.025  0.703817
21.1011  0.410841
21.1771  0.353028
21.2531  0.605294
21.3291  0.18165
21.4051  0.247596
21.4811  0.174335
21.5571  -0.0744929
21.6331  0.0473453
21.7092  0.485481
21.7852  -0.147083
21.8612  0.025765
21.9372  0.00852549
22.0132  -0.10888
22.0322  0.0483411

File: 8_ReMoB2_500psi_50p0GPa_S_P1_C1_D1w_055.dat
2.93393  0.549653
3.00995  0.348543
3.08596  0.318863
3.16197  0.582946
3.23799  0.196052
3.314  0.719107
3.39001  1.96175
3.46603  18.4124
3.54204  30.9111
3.61805  4.24709
3.69407  1.21928
3.77008  0.521592
3.84609  0.957434
3.9221  0.874189
3.99812  0.229321
4.07413  -0.0321091
4.15014  0.729592
4.22616  0.566824
4.30217  0.509317
4.37818  0.449558
4.4542  1.33219
4.53021  0.874872
4.60622  -0.149641
4.68224  0.423673
4.75825  0.600076
4.83426  0.334213
4.91027  0.0260321
4.98629  0.302878
5.0623  0.574893
5.13831  0.399542
5.21433  0.580434
5.29034  0.299985
5.36635  0.0865951
5.44237  0.295277
5.51838  0.130942
5.59439  0.55208
5.67041  0.532825
5.74642  2.96956
5.82243  5.00468
5.89844  2.34044
5.97446  1.00648
6.05047  -0.145433
6.12648  0.42983
6.2025  0.377948
6.27851  0.97208
6.35452  4.45328
6.43054  22.4713
6.50655  8.34549
6.58256  2.34231
6.65857  5.953
6.73459  13.8703
6.8106  11.2915
6.88661  16.4636
6.96263  62.5321
7.03864  111.798
7.11465  51.1557
7.19067  13.2232
7.26668  3.73158
7.34269  2.08567
7.41871  1.01625
7.49472  0.787458
7.57073  1.02319
7.64674  -0.356556
7.72276  0.687903
7.79877  0.957196
7.87478  0.60232
7.9508  1.15384
8.02681  0.562773
8.10282  0.123563
8.17884  0.144697
8.25485  0.585715
8.33086  0.254028
8.40688  0.43652
8.48289  0.522448
8.5589  0.144008
8.63491  0.747745
8.71093  -0.0353418
8.78694  0.419966
8.86295  0.636753
8.93897  -0.103737
9.01498  1.29861
9.09099  5.06126
9.16701  14.3053
9.24302  30.7649
9.31903  64.5751
9.39505  167.521
9.47106  437.672
9.54707  527.091
9.62308  361.576
9.6991  221.419
9.77511  121.093
9.85112  48.076
9.92714  17.4628
10.0031  5.48693
10.0792  1.28349
10.1552  -0.1439
10.2312  -0.679731
10.3072  0.394403
10.3832  1.37976
10.4592  6.18945
10.5352  15.7622
10.6113  24.9435
10.6873  26.9302
10.7633  19.3952
10.8393  18.5437
10.9153  22.4354
10.9913  28.1628
11.0673  32.5767
11.1433  33.1238
11.2194  31.1318
11.2954  31.0589
11.3714  20.5439
11.4474  8.73277
11.5234  4.3491
11.5994  2.65394
11.6754  2.02037
11.7515  -0.24186
11.8275  -0.520867
11.9035  -0.447806
11.9795  -0.0414493
12.0555  2.89432
12.1315  8.81432
12.2075  12.9756
12.2835  15.4365
12.3596  20.297
12.4356  29.6702
12.5116  50.8556
12.5876  86.5032
12.6636  121.828
12.7396  92.7441
12.8156  55.1646
12.8916  41.1009
12.9677  36.9538
13.0437  34.3965
13.1197  33.0694
13.1957  31.9893
13.2717  32.4463
13.3477  35.6967
13.4237  45.7908
13.4998  46.1546
13.5758  23.2422
13.6518  5.90999
13.7278  0.126225
13.8038  -0.422429
13.8798  1.55352
13.9558  2.61087
14.0318  6.08884
14.1079  10.3999
14.1839  15.6548
14.2599  15.7395
14.3359  9.47978
14.4119  2.25067
14.4879  -0.315852
14.5639  -0.54512
14.6399  -0.558067
14.716  0.11589
14.792  -0.140092
14.868  0.316889
14.944  1.04189
15.02  0.333904
15.096  0.242274
15.172  0.532941
15.2481  0.572785
15.3241  -0.014139
15.4001  0.162467
15.4761  0.36847
15.5521  0.865203
15.6281  1.8588
15.7041  2.78693
15.7801  4.21498
15.8562  6.17649
15.9322  9.98122
16.0082  16.282
16.0842  20.6104
16.1602  23.3083
16.2362  27.4163
16.3122  29.9993
16.3882  31.2858
16.4643  28.7554
16.5403  22.9585
16.6163  15.0173
16.6923  8.7716
16.7683  5.63649
16.8443  3.60439
16.9203  2.30119
16.9964  1.79911
17.0724  1.34563
17.1484  1.40653
17.2244  0.945547
17.3004  1.51616
17.3764  2.8893
17.4524  4.07062
17.5284  6.12656
17.6045  9.93681
17.6805  16.5787
17.7565  28.5159
17.8325  48.8059
17.9085  64.5941
17.9845  67.3589
18.0605  58.591
18.1365  44.5503
18.2126  29.1572
18.2886  16.5459
18.3646  9.38729
18.4406  4.993
18.5166  3.09551
18.5926  1.54696
18.6686  0.625522
18.7447  0.370311
18.8207  0.773542
18.8967  2.49793
18.9727  4.69718
19.0487  5.76575
19.1247  4.86662
19.2007  3.29623
19.2767  1.05608
19.3528  -0.430868
19.4288  -0.560216
19.5048  0.286303
19.5808  1.9353
19.6568  4.19874
19.7328  9.24101
19.8088  13.9929
19.8848  12.2314
19.9609  7.24935
20.0369  3.80487
20.1129  1.27765
20.1889  0.808082
20.2649  0.11798
20.3409  0.155459
20.4169  0.321659
20.493  0.39139
20.569  -0.0174976
20.645  -0.208987
20.721  0.480862
20.797  0.454352
20.873  0.465855
20.949  0.0790087
21.025  0.231714
21.1011  0.345621
21.1771  0.341522
21.2531  0.435859
21.3291  -0.0733606
21.4051  0.310116
21.4811  0.135733
21.5571  0.46683
21.6331  0.115868
21.7092  0.254838
21.7852  0.0762498
21.8612  0.0611266
21.9372  -0.0804333
22.0132  -0.0433456
22.0322  0.00946185

File: 9_ReMoB2_515psi_noRuby_S_P1_C1_D1w_061.dat
2.93393  0.437009
3.00995  1.29817
3.08596  1.05204
3.16197  0.563888
3.23799  1.49761
3.314  1.14785
3.39001  3.2264
3.46603  12.9377
3.54204  19.7297
3.61805  4.63274
3.69407  1.83963
3.77008  0.757706
3.84609  0.254244
3.9221  1.1771
3.99812  1.14474
4.07413  1.07842
4.15014  1.53146
4.22616  1.32139
4.30217  0.549687
4.37818  0.866187
4.4542  0.962889
4.53021  0.309573
4.60622  0.217931
4.68224  0.422681
4.75825  1.10824
4.83426  0.334157
4.91027  0.254261
4.98629  0.686849
5.0623  0.0177834
5.13831  0.838289
5.21433  0.491278
5.29034  1.28068
5.36635  0.748866
5.44237  -0.222482
5.51838  1.06913
5.59439  -0.004321
5.67041  0.7721
5.74642  1.54769
5.82243  4.87651
5.89844  2.09956
5.97446  0.427758
6.05047  0.439993
6.12648  0.219128
6.2025  0.614976
6.27851  0.26832
6.35452  2.46026
6.43054  17.4978
6.50655  9.48453
6.58256  1.30923
6.65857  3.40167
6.73459  10.6798
6.8106  10.975
6.88661  12.9596
6.96263  43.4722
7.03864  84.5306
7.11465  45.2498
7.19067  13.5903
7.26668  4.66005
7.34269  1.28281
7.41871  0.847208
7.49472  0.436407
7.57073  0.1013
7.64674  0.365237
7.72276  0.147579
7.79877  0.0855544
7.87478  1.00439
7.9508  0.578072
8.02681  0.731485
8.10282  -0.171629
8.17884  0.582952
8.25485  0.577192
8.33086  0.337284
8.40688  0.647918
8.48289  0.594069
8.5589  0.651062
8.63491  -0.118429
8.71093  0.55309
8.78694  0.0954122
8.86295  -0.373321
8.93897  -0.0617715
9.01498  1.01356
9.09099  3.97529
9.16701  14.7942
9.24302  34.2269
9.31903  62.8928
9.39505  120.977
9.47106  279.725
9.54707  471.886
9.62308  405.906
9.6991  249.615
9.77511  152.378
9.85112  66.2562
9.92714  24.9258
10.0031  8.54935
10.0792  1.92356
10.1552  -0.325352
10.2312  -0.716745
10.3072  0.192305
10.3832  1.78032
10.4592  3.74177
10.5352  9.4606
10.6113  17.6362
10.6873  21.1909
10.7633  19.3644
10.8393  17.3685
10.9153  19.9454
10.9913  23.4491
11.0673  27.4265
11.1433  29.9779
11.2194  28.1968
11.2954  30.2793
11.3714  26.7439
11.4474  15.245
11.5234  7.37561
11.5994  4.2269
11.6754  2.09502
11.7515  1.2983
11.8275  -0.427835
11.9035  -0.949889
11.9795  0.430231
12.0555  4.90143
12.1315  15.9784
12.2075  23.3408
12.2835  20.3802
12.3596  18.9085
12.4356  24.6363
12.5116  38.9523
12.5876  68.0584
12.6636  109.343
12.7396  138.327
12.8156  75.7363
12.8916  45.0203
12.9677  36.2319
13.0437  32.557
13.1197  28.3207
13.1957  27.327
13.2717  26.8345
13.3477  26.7513
13.4237  30.6185
13.4998  34.7492
13.5758  28.5714
13.6518  11.7215
13.7278  2.02239
13.8038  -0.0169229
13.8798  0.819254
13.9558  2.10305
14.0318  4.67739
14.1079  6.5481
14.1839  9.19431
14.2599  11.5305
14.3359  7.47415
14.4119  1.42874
14.4879  -0.86931
14.5639  -0.442696
14.6399  -0.243587
14.716  0.18395
14.792  0.18795
14.868  0.906004
14.944  0.947679
15.02  0.0493845
15.096  1.01738
15.172  0.782812
15.2481  0.532744
15.3241  0.0295794
15.4001  0.283114
15.4761  0.386111
15.5521  0.430615
15.6281  1.28628
15.7041  2.45359
15.7801  3.03402
15.8562  5.04812
15.9322  7.68883
16.0082  11.3691
16.0842  16.128
16.1602  18.5441
16.2362  20.7622
16.3122  23.1531
16.3882  25.9827
16.4643  27.774
16.5403  25.6956
16.6163  18.5188
16.6923  11.6913
16.7683  6.96541
16.8443  4.71651
16.9203  3.06955
16.9964  1.85896
17.0724  1.28945
17.1484  1.1157
17.2244  1.68419
17.3004  1.83323
17.3764  1.89868
17.4524  3.374
17.5284  5.02403
17.6045  6.6776
17.6805  10.6918
17.7565  17.6
17.8325  29.1831
17.9085  46.0873
17.9845  59.8153
18.0605  61.63
18.1365  54.6261
18.2126  50.1775
18.2886  28.7574
18.3646  14.8211
18.4406  8.75764
18.5166  4.59207
18.5926  2.25699
18.6686  0.979141
18.7447  0.122245
18.8207  -0.117081
18.8967  1.33215
18.9727  3.39101
19.0487  4.82535
19.1247  4.56075
19.2007  2.84502
19.2767  1.67329
19.3528  0.0435278
19.4288  -0.417986
19.5048  -0.353756
19.5808  0.38029
19.6568  1.67885
19.7328  3.31971
19.8088  7.13427
19.8848  9.9725
19.9609  7.87819
20.0369  4.819
20.1129  2.43879
20.1889  1.39295
20.2649  0.358891
20.3409  0.31751
20.4169  0.223353
20.493  0.0322787
20.569  0.471145
20.645  0.321232
20.721  0.00853223
20.797  -0.0918835
20.873  0.314025
20.949  0.401382
21.025  0.307544
21.1011  0.489064
21.1771  0.526068
21.2531  0.555384
21.3291  0.00912488
21.4051  -0.0239065
21.4811  0.409706
21.5571  0.20477
21.6331  0.234988
21.7092  0.161561
21.7852  0.204685
21.8612  -0.0129365
21.9372  0.029281
22.0132  0.112657
22.0322  -0.0671076

File: 10_ReMoB2_530psi_noRuby_S_P1_C1_D1w_067.dat
2.93393  0.672171
3.00995  0.495623
3.08596  1.3573
3.16197  2.02086
3.23799  1.57114
3.314  2.10321
3.39001  4.02527
3.46603  11.5079
3.54204  23.319
3.61805  5.24894
3.69407  2.45052
3.77008  0.835831
3.84609  0.819707
3.9221  0.868841
3.99812  1.41382
4.07413  0.559674
4.15014  0.616469
4.22616  0.851059
4.30217  0.718373
4.37818  0.557443
4.4542  0.735583
4.53021  1.49933
4.60622  0.97582
4.68224  0.32498
4.75825  1.03432
4.83426  1.05529
4.91027  1.01116
4.98629  0.165735
5.0623  0.142406
5.13831  1.08102
5.21433  0.433759
5.29034  0.812338
5.36635  0.282183
5.44237  -0.0245502
5.51838  0.831757
5.59439  0.73977
5.67041  0.0340527
5.74642  0.811589
5.82243  4.29936
5.89844  2.13458
5.97446  0.470363
6.05047  0.393551
6.12648  -0.0522878
6.2025  0.781252
6.27851  0.692352
6.35452  2.07513
6.43054  12.1915
6.50655  8.27468
6.58256  2.13086
6.65857  1.5981
6.73459  7.30928
6.8106  11.1842
6.88661  11.4123
6.96263  31.778
7.03864  80.1836
7.11465  57.8666
7.19067  17.6721
7.26668  6.67577
7.34269  2.86226
7.41871  1.00223
7.49472  0.758364
7.57073  0.169529
7.64674  0.462933
7.72276  0.192141
7.79877  0.659261
7.87478  0.335182
7.9508  0.947557
8.02681  1.16162
8.10282  0.388208
8.17884  1.09635
8.25485  0.946244
8.33086  -0.155992
8.40688  0.904055
8.48289  0.649612
8.5589  0.260926
8.63491  -0.0946203
8.71093  -0.118172
8.78694  0.901059
8.86295  0.182737
8.93897  0.592819
9.01498  0.723861
9.09099  4.69211
9.16701  15.9916
9.24302  42.3242
9.31903  74.2383
9.39505  116.489
9.47106  203.491
9.54707  368.881
9.62308  393.821
9.6991  264.972
9.77511  171.648
9.85112  86.9378
9.92714  33.6368
10.0031  12.1859
10.0792  3.12328
10.1552  0.555463
10.2312  -0.902797
10.3072  -0.620853
10.3832  0.647408
10.4592  1.82987
10.5352  5.43818
10.6113  13.2973
10.6873  17.0602
10.7633  18.6905
10.8393  17.1146
10.9153  19.68
10.9913  22.8672
11.0673  28.3657
11.1433  33.1961
11.2194  31.4954
11.2954  29.9633
11.3714  31.2222
11.4474  21.5246
11.5234  9.2225
11.5994  3.14164
11.6754  2.16481
11.7515  0.763938
11.8275  -0.7784
11.9035  -0.719621
11.9795  2.46917
12.0555  10.9803
12.1315  35.2624
12.2075  65.5942
12.2835  55.2597
12.3596  31.8103
12.4356  28.0969
12.5116  35.7855
12.5876  54.0421
12.6636  83.2116
12.7396  104.718
12.8156  80.5794
12.8916  48.7137
12.9677  36.5585
13.0437  33.3308
13.1197  30.9489
13.1957  29.7254
13.2717  28.0301
13.3477  27.2247
13.4237  27.5822
13.4998  31.8614
13.5758  33.801
13.6518  21.0531
13.7278  5.74323
13.8038  0.451708
13.8798  -0.422528
13.9558  1.18998
14.0318  2.47496
14.1079  4.96545
14.1839  8.72115
14.2599  12.3454
14.3359  15.2406
14.4119  6.12662
14.4879  -0.400749
14.5639  -0.64721
14.6399  -0.313176
14.716  0.28322
14.792  -0.00560112
14.868  0.54185
14.944  0.863319
15.02  0.30214
15.096  0.302398
15.172  0.919862
15.2481  0.253681
15.3241  -0.0555373
15.4001  0.379403
15.4761  0.142614
15.5521  0.56842
15.6281  0.399505
15.7041  1.30714
15.7801  2.22731
15.8562  3.53237
15.9322  5.5469
16.0082  8.46574
16.0842  11.5703
16.1602  15.4126
16.2362  19.2197
16.3122  21.0067
16.3882  23.2605
16.4643  28.4978
16.5403  30.5635
16.6163  26.3619
16.6923  17.3331
16.7683  10.1964
16.8443  6.23984
16.9203  3.61845
16.9964  3.04406
17.0724  2.03101
17.1484  1.82146
17.2244  1.58077
17.3004  1.68872
17.3764  2.19166
17.4524  2.96081
17.5284  3.92643
17.6045  5.4248
17.6805  7.89968
17.7565  12.7578
17.8325  21.1692
17.9085  35.7693
17.9845  53.2396
18.0605  61.3388
18.1365  58.0615
18.2126  46.7171
18.2886  32.3779
18.3646  19.8616
18.4406  11.385
18.5166  6.64474
18.5926  3.8537
18.6686  1.69169
18.7447  -0.0701542
18.8207  -0.199746
18.8967  0.251714
18.9727  1.25758
19.0487  3.70563
19.1247  4.10841
19.2007  4.00582
19.2767  2.40872
19.3528  0.594098
19.4288  -0.491374
19.5048  -0.413123
19.5808  -0.122995
19.6568  0.633383
19.7328  1.46967
19.8088  3.2868
19.8848  5.21363
19.9609  6.4085
20.0369  5.40958
20.1129  3.03943
20.1889  1.88322
20.2649  1.36622
20.3409  0.748628
20.4169  0.752061
20.493  0.30624
20.569  0.55946
20.645  0.41077
20.721  0.106443
20.797  -0.0910232
20.873  0.292713
20.949  -0.0240718
21.025  0.222673
21.1011  0.450356
21.1771  0.207843
21.2531  0.184049
21.3291  0.011739
21.4051  0.041442
21.4811  0.219952
21.5571  0.00823063
21.6331  0.0858738
21.7092  -0.0215614
21.7852  0.0559086
21.8612  0.0501058
21.9372  -0.00744158
22.0132  -0.080416
22.0322  0.0252004