Folder: remob2/data/processed/Run2_XRD (part 6)

File: 27_ReMoB2_1080psi_noRuby_S_P1_C1_D1w_169.dat
2.93393  0.490529
3.00995  1.24573
3.08596  1.11059
3.16197  0.0518621
3.23799  1.23275
3.314  1.39731
3.39001  1.32742
3.46603  0.747023
3.54204  1.70092
3.61805  9.26838
3.69407  7.42917
3.77008  3.57411
3.84609  0.985835
3.9221  0.0423312
3.99812  1.43137
4.07413  1.45667
4.15014  0.359017
4.22616  0.185109
4.30217  0.00117219
4.37818  1.32298
4.4542  0.672825
4.53021  0.162554
4.60622  0.472891
4.68224  1.11984
4.75825  0.328985
4.83426  0.430019
4.91027  0.905376
4.98629  0.533285
5.0623  -0.14579
5.13831  0.795433
5.21433  -0.159146
5.29034  0.334445
5.36635  0.435888
5.44237  0.637472
5.51838  1.49475
5.59439  0.646009
5.67041  -0.0155158
5.74642  -0.0714216
5.82243  0.657844
5.89844  0.16472
5.97446  1.61117
6.05047  1.30203
6.12648  1.43412
6.2025  0.325126
6.27851  0.657041
6.35452  0.593923
6.43054  -0.0453479
6.50655  0.296449
6.58256  0.971508
6.65857  4.10572
6.73459  4.77748
6.8106  0.570675
6.88661  -0.243856
6.96263  0.376332
7.03864  3.40715
7.11465  10.47
7.19067  16.3732
7.26668  33.6926
7.34269  44.2704
7.41871  25.3331
7.49472  14.1428
7.57073  9.26347
7.64674  6.28146
7.72276  5.75039
7.79877  4.99598
7.87478  4.21569
7.9508  3.12261
8.02681  2.68591
8.10282  1.36514
8.17884  0.44348
8.25485  0.222142
8.33086  0.0133072
8.40688  -0.0318019
8.48289  0.248419
8.5589  0.727754
8.63491  -0.0634392
8.71093  -0.0851534
8.78694  -0.0372838
8.86295  -0.181125
8.93897  -0.452971
9.01498  0.23879
9.09099  0.00318335
9.16701  0.414889
9.24302  1.19571
9.31903  3.19142
9.39505  8.42915
9.47106  19.7049
9.54707  51.3974
9.62308  148.365
9.6991  284.734
9.77511  274.015
9.85112  204.164
9.92714  152.051
10.0031  105.186
10.0792  79.5325
10.1552  64.8592
10.2312  49.9783
10.3072  33.4172
10.3832  20.7892
10.4592  11.0047
10.5352  4.6735
10.6113  0.651566
10.6873  -0.94412
10.7633  -0.293228
10.8393  3.92877
10.9153  6.96558
10.9913  5.07015
11.0673  1.78402
11.1433  0.508811
11.2194  0.467572
11.2954  1.63449
11.3714  1.292
11.4474  1.6152
11.5234  1.59987
11.5994  1.23366
11.6754  0.896047
11.7515  0.931624
11.8275  0.980865
11.9035  -0.435846
11.9795  -0.472451
12.0555  -0.204763
12.1315  0.0959352
12.2075  1.87915
12.2835  5.55003
12.3596  11.9797
12.4356  25.65
12.5116  61.7501
12.5876  155.753
12.6636  356.254
12.7396  525.62
12.8156  478.365
12.8916  293.237
12.9677  126.437
13.0437  54.9575
13.1197  30.963
13.1957  20.1706
13.2717  13.0954
13.3477  9.10445
13.4237  5.3707
13.4998  3.34058
13.5758  1.47231
13.6518  0.94917
13.7278  0.77039
13.8038  1.57325
13.8798  1.31277
13.9558  1.18487
14.0318  0.547997
14.1079  -0.0465887
14.1839  -0.230745
14.2599  -0.452219
14.3359  0.339792
14.4119  1.28565
14.4879  3.61668
14.5639  5.83052
14.6399  7.00716
14.716  7.06175
14.792  5.13122
14.868  3.60398
14.944  2.34142
15.02  0.594923
15.096  0.410628
15.172  0.0571215
15.2481  0.0424594
15.3241  0.0635823
15.4001  -0.0201974
15.4761  0.233625
15.5521  0.463526
15.6281  0.775927
15.7041  0.596907
15.7801  0.690008
15.8562  0.854276
15.9322  0.914715
16.0082  0.690333
16.0842  0.391073
16.1602  0.0961769
16.2362  0.0242471
16.3122  0.309447
16.3882  0.591747
16.4643  2.36971
16.5403  4.48918
16.6163  8.39847
16.6923  15.2457
16.7683  24.1556
16.8443  32.6047
16.9203  34.8492
16.9964  32.0815
17.0724  29.3114
17.1484  24.8783
17.2244  21.7208
17.3004  17.3699
17.3764  13.8033
17.4524  10.8118
17.5284  8.26088
17.6045  5.96405
17.6805  4.56193
17.7565  2.79333
17.8325  2.41702
17.9085  2.52726
17.9845  2.37987
18.0605  2.61821
18.1365  2.1764
18.2126  3.13101
18.2886  2.93491
18.3646  2.94619
18.4406  4.11859
18.5166  6.11103
18.5926  10.5245
18.6686  18.4353
18.7447  25.5501
18.8207  29.6321
18.8967  29.4362
18.9727  24.8676
19.0487  18.2781
19.1247  10.2721
19.2007  3.89033
19.2767  1.58243
19.3528  1.45464
19.4288  0.46411
19.5048  0.0336418
19.5808  -0.459126
19.6568  0.0227443
19.7328  0.158836
19.8088  1.08343
19.8848  0.856374
19.9609  0.308626
20.0369  -0.078886
20.1129  0.00414524
20.1889  0.296187
20.2649  0.523796
20.3409  0.304175
20.4169  0.00779847
20.493  0.331501
20.569  0.0938265
20.645  0.308437
20.721  0.340722
20.797  0.439114
20.873  0.526751
20.949  0.98925
21.025  1.38932
21.1011  1.38619
21.1771  1.25455
21.2531  1.44458
21.3291  0.699902
21.4051  -0.055874
21.4811  0.376122
21.5571  0.185363
21.6331  -0.148763
21.7092  0.351867
21.7852  0.181156
21.8612  -0.219778
21.9372  -0.0749095
22.0132  0.0550728
22.0322  -0.0218614

File: 28_ReMoB2_1120psi_noRuby_S_P1_C1_D1w_175.dat
2.93393  0.542558
3.00995  0.588945
3.08596  0.873308
3.16197  -0.102141
3.23799  0.415441
3.314  1.27271
3.39001  0.994224
3.46603  0.645728
3.54204  2.02226
3.61805  5.00559
3.69407  9.16504
3.77008  2.63248
3.84609  0.373354
3.9221  1.34216
3.99812  1.20757
4.07413  0.477994
4.15014  0.659065
4.22616  0.449124
4.30217  0.0587033
4.37818  1.35784
4.4542  0.00045217
4.53021  0.185881
4.60622  0.00144086
4.68224  1.17146
4.75825  0.463258
4.83426  0.508988
4.91027  0.21717
4.98629  0.0814412
5.0623  -0.106278
5.13831  0.404618
5.21433  0.373002
5.29034  1.11138
5.36635  0.800223
5.44237  0.241427
5.51838  1.07219
5.59439  0.452722
5.67041  0.537024
5.74642  0.693511
5.82243  0.419887
5.89844  1.11419
5.97446  0.71235
6.05047  1.06477
6.12648  2.24867
6.2025  1.33647
6.27851  0.960805
6.35452  0.752881
6.43054  0.839776
6.50655  -0.0634503
6.58256  0.270046
6.65857  1.95061
6.73459  5.6585
6.8106  1.7883
6.88661  0.393957
6.96263  0.431917
7.03864  1.28607
7.11465  4.23496
7.19067  11.8379
7.26668  21.2898
7.34269  43.853
7.41871  37.4041
7.49472  20.04
7.57073  11.4644
7.64674  8.27357
7.72276  7.16136
7.79877  5.95991
7.87478  5.42066
7.9508  4.49233
8.02681  3.92695
8.10282  2.9106
8.17884  1.50023
8.25485  0.54282
8.33086  0.485182
8.40688  1.02146
8.48289  -0.206122
8.5589  0.642361
8.63491  1.25532
8.71093  0.447894
8.78694  0.598181
8.86295  0.579727
8.93897  0.174852
9.01498  -0.228923
9.09099  -0.0172702
9.16701  -0.0636161
9.24302  0.217433
9.31903  1.85431
9.39505  4.17152
9.47106  9.16702
9.54707  22.7982
9.62308  59.9814
9.6991  167.758
9.77511  295.408
9.85112  263.302
9.92714  196.514
10.0031  145.714
10.0792  102.901
10.1552  76.1006
10.2312  62.2423
10.3072  46.8918
10.3832  31.9264
10.4592  19.3169
10.5352  10.3285
10.6113  4.46772
10.6873  0.625325
10.7633  -0.936309
10.8393  0.329337
10.9153  4.13254
10.9913  7.04477
11.0673  4.14443
11.1433  1.79801
11.2194  -0.133172
11.2954  0.575225
11.3714  0.96903
11.4474  1.97892
11.5234  0.703819
11.5994  0.440586
11.6754  1.40449
11.7515  0.705823
11.8275  0.58299
11.9035  0.976297
11.9795  -0.577861
12.0555  -0.608532
12.1315  0.00799534
12.2075  0.294907
12.2835  1.82856
12.3596  5.04364
12.4356  10.832
12.5116  24.17
12.5876  53.9311
12.6636  136.868
12.7396  323.07
12.8156  520.138
12.8916  506.828
12.9677  329.271
13.0437  147.042
13.1197  61.8082
13.1957  33.8702
13.2717  21.448
13.3477  14.7022
13.4237  9.17792
13.4998  6.74051
13.5758  3.28357
13.6518  1.67088
13.7278  0.938403
13.8038  1.19904
13.8798  1.42404
13.9558  1.21894
14.0318  0.877959
14.1079  0.61728
14.1839  0.0556951
14.2599  -0.538161
14.3359  -0.294085
14.4119  0.0688198
14.4879  2.05599
14.5639  3.83199
14.6399  5.96
14.716  6.98422
14.792  7.25178
14.868  5.77354
14.944  4.7721
15.02  2.68992
15.096  1.151
15.172  0.30438
15.2481  -0.0911337
15.3241  0.180269
15.4001  -0.100683
15.4761  0.256765
15.5521  0.488809
15.6281  0.30069
15.7041  0.850771
15.7801  0.434558
15.8562  0.124614
15.9322  1.09706
16.0082  0.975225
16.0842  0.622614
16.1602  0.407925
16.2362  -0.0412868
16.3122  0.144259
16.3882  0.631115
16.4643  0.628037
16.5403  1.70132
16.6163  3.38479
16.6923  6.32028
16.7683  11.9189
16.8443  20.555
16.9203  29.6883
16.9964  35.4663
17.0724  34.7529
17.1484  31.2957
17.2244  27.0869
17.3004  23.8612
17.3764  19.3039
17.4524  15.9225
17.5284  12.7212
17.6045  10.226
17.6805  8.05805
17.7565  5.23436
17.8325  4.03876
17.9085  3.24585
17.9845  2.61869
18.0605  2.82856
18.1365  2.76114
18.2126  2.54069
18.2886  2.60869
18.3646  1.81337
18.4406  1.73011
18.5166  1.73286
18.5926  2.41093
18.6686  5.11291
18.7447  9.78766
18.8207  16.8727
18.8967  21.9203
18.9727  24.8093
19.0487  24.3062
19.1247  19.6184
19.2007  13.3366
19.2767  6.90505
19.3528  2.14527
19.4288  0.407432
19.5048  0.462731
19.5808  0.0328908
19.6568  -0.491044
19.7328  -0.0908198
19.8088  0.134715
19.8848  0.111272
19.9609  0.856629
20.0369  0.955306
20.1129  0.423067
20.1889  -0.168483
20.2649  -0.0632215
20.3409  0.156614
20.4169  0.287135
20.493  0.104006
20.569  0.280991
20.645  0.16869
20.721  -0.0605948
20.797  -0.0367711
20.873  0.0599795
20.949  0.308496
21.025  1.13015
21.1011  0.443718
21.1771  0.727046
21.2531  1.25759
21.3291  0.724471
21.4051  0.17916
21.4811  0.0339417
21.5571  0.242087
21.6331  0.216675
21.7092  -0.129789
21.7852  0.360384
21.8612  -0.164018
21.9372  0.0399977
22.0132  -0.0664149
22.0322  0.0603457

File: 29_RuMoB2_915psi_noRuby_S_P1_C1_D1w_181.dat
2.93393  0.415315
3.00995  1.51221
3.08596  0.88244
3.16197  0.725818
3.23799  1.80765
3.314  2.0008
3.39001  0.568186
3.46603  0.899783
3.54204  1.80197
3.61805  4.81761
3.69407  6.8431
3.77008  3.20449
3.84609  0.451531
3.9221  1.0868
3.99812  0.846355
4.07413  0.48846
4.15014  0.791732
4.22616  1.11023
4.30217  -0.00360568
4.37818  0.962921
4.4542  0.281066
4.53021  0.50097
4.60622  0.35311
4.68224  -0.00898
4.75825  1.35563
4.83426  0.478555
4.91027  0.910315
4.98629  0.461479
5.0623  0.254456
5.13831  0.145335
5.21433  1.00434
5.29034  0.934021
5.36635  0.856924
5.44237  0.209889
5.51838  0.124513
5.59439  0.319102
5.67041  0.370372
5.74642  0.213566
5.82243  1.23042
5.89844  0.897208
5.97446  1.72086
6.05047  1.13586
6.12648  2.09589
6.2025  0.194786
6.27851  0.786712
6.35452  0.548647
6.43054  0.655872
6.50655  1.09718
6.58256  0.658445
6.65857  0.187151
6.73459  2.14102
6.8106  0.965405
6.88661  -0.337837
6.96263  0.394261
7.03864  0.915181
7.11465  3.06899
7.19067  6.99742
7.26668  16.0459
7.34269  34.8568
7.41871  29.4181
7.49472  16.6976
7.57073  12.829
7.64674  9.06578
7.72276  9.272
7.79877  8.32879
7.87478  7.31927
7.9508  5.49637
8.02681  2.91088
8.10282  1.38576
8.17884  1.18144
8.25485  1.07989
8.33086  0.327851
8.40688  0.701612
8.48289  -0.183736
8.5589  0.244952
8.63491  0.359162
8.71093  0.309733
8.78694  0.0668769
8.86295  -0.402094
8.93897  0.290213
9.01498  0.281549
9.09099  0.106979
9.16701  0.173934
9.24302  1.24788
9.31903  3.47363
9.39505  7.42766
9.47106  15.2588
9.54707  33.991
9.62308  84.6609
9.6991  225.912
9.77511  355.886
9.85112  280.577
9.92714  190.719
10.0031  129.349
10.0792  85.2479
10.1552  60.2175
10.2312  45.1407
10.3072  32.318
10.3832  21.516
10.4592  11.6827
10.5352  5.81422
10.6113  2.32945
10.6873  0.0835081
10.7633  -0.514222
10.8393  -0.59836
10.9153  1.62252
10.9913  1.76389
11.0673  1.29271
11.1433  0.505979
11.2194  0.36459
11.2954  -0.0191923
11.3714  0.470984
11.4474  1.50037
11.5234  0.673926
11.5994  0.749929
11.6754  0.76174
11.7515  1.21269
11.8275  0.502598
11.9035  -0.463857
11.9795  -0.126435
12.0555  -0.823796
12.1315  0.421989
12.2075  1.06702
12.2835  3.04005
12.3596  7.54277
12.4356  15.0721
12.5116  32.9151
12.5876  74.0891
12.6636  182.873
12.7396  404.723
12.8156  580.074
12.8916  488.646
12.9677  275.162
13.0437  114.42
13.1197  48.9871
13.1957  26.7691
13.2717  16.4322
13.3477  10.3456
13.4237  6.22062
13.4998  3.34463
13.5758  1.47807
13.6518  1.27229
13.7278  0.653415
13.8038  1.09237
13.8798  1.16324
13.9558  0.585688
14.0318  0.331959
14.1079  0.21382
14.1839  0.0351859
14.2599  -0.395602
14.3359  -0.125242
14.4119  0.0554353
14.4879  1.09687
14.5639  1.81779
14.6399  4.36171
14.716  5.92121
14.792  4.95806
14.868  3.60151
14.944  1.8795
15.02  1.08518
15.096  0.819341
15.172  0.30604
15.2481  -0.167961
15.3241  0.131729
15.4001  0.321705
15.4761  0.443839
15.5521  0.507245
15.6281  1.19447
15.7041  1.15341
15.7801  1.27243
15.8562  1.14779
15.9322  1.03479
16.0082  0.811738
16.0842  -0.00885401
16.1602  0.663836
16.2362  0.0471103
16.3122  0.0729317
16.3882  0.710295
16.4643  0.945215
16.5403  1.90614
16.6163  3.99579
16.6923  7.52426
16.7683  14.315
16.8443  23.7867
16.9203  33.8719
16.9964  39.1135
17.0724  37.4762
17.1484  32.7114
17.2244  28.8213
17.3004  24.2398
17.3764  19.4725
17.4524  14.9648
17.5284  11.6468
17.6045  9.30379
17.6805  7.00399
17.7565  5.12635
17.8325  3.52773
17.9085  2.57469
17.9845  1.97541
18.0605  1.54951
18.1365  1.75781
18.2126  1.74253
18.2886  1.90367
18.3646  1.58898
18.4406  1.39831
18.5166  1.91431
18.5926  3.99354
18.6686  8.5112
18.7447  16.1068
18.8207  23.8291
18.8967  28.7463
18.9727  29.3077
19.0487  24.567
19.1247  17.907
19.2007  10.616
19.2767  3.55925
19.3528  0.248995
19.4288  0.440698
19.5048  1.34108
19.5808  1.32222
19.6568  0.550004
19.7328  0.0930515
19.8088  -0.126011
19.8848  0.51847
19.9609  0.605749
20.0369  0.376343
20.1129  0.0160508
20.1889  0.212974
20.2649  -0.0295699
20.3409  0.711201
20.4169  -0.0977207
20.493  -0.0287702
20.569  0.0870869
20.645  -0.0500035
20.721  0.14214
20.797  -0.0846336
20.873  0.0618004
20.949  0.435497
21.025  0.363737
21.1011  0.75093
21.1771  0.952796
21.2531  0.506639
21.3291  0.472771
21.4051  0.301866
21.4811  -0.0591687
21.5571  0.407978
21.6331  -0.147111
21.7092  0.110321
21.7852  0.182622
21.8612  -0.119831
21.9372  0.166266
22.0132  -0.110273
22.0322  0.0636259

File: 30_RuMoB2_470psi_noRuby_S_P1_C1_D1w_187.dat
2.93393  0.423237
3.00995  0.51739
3.08596  0.173974
3.16197  1.13354
3.23799  1.08042
3.314  0.953223
3.39001  0.931786
3.46603  0.594023
3.54204  1.72366
3.61805  8.41491
3.69407  6.23273
3.77008  1.15274
3.84609  1.21959
3.9221  0.421194
3.99812  0.629386
4.07413  0.180709
4.15014  1.24587
4.22616  0.561936
4.30217  0.414241
4.37818  0.719413
4.4542  0.510503
4.53021  1.2207
4.60622  0.727643
4.68224  0.101719
4.75825  1.67292
4.83426  0.535291
4.91027  0.299076
4.98629  0.559546
5.0623  0.316631
5.13831  0.949576
5.21433  0.761823
5.29034  1.20249
5.36635  0.380271
5.44237  1.17316
5.51838  1.06229
5.59439  0.649914
5.67041  0.284589
5.74642  0.752823
5.82243  1.11673
5.89844  -0.0923599
5.97446  2.01256
6.05047  1.08985
6.12648  1.25636
6.2025  0.404933
6.27851  0.191783
6.35452  0.791607
6.43054  0.793722
6.50655  0.106019
6.58256  1.30869
6.65857  2.86337
6.73459  0.0276599
6.8106  -0.406727
6.88661  0.369836
6.96263  1.38013
7.03864  3.5239
7.11465  6.38365
7.19067  14.728
7.26668  36.9807
7.34269  36.7317
7.41871  22.3884
7.49472  16.2161
7.57073  14.0854
7.64674  12.7982
7.72276  12.1557
7.79877  11.7008
7.87478  7.4832
7.9508  3.85177
8.02681  2.56491
8.10282  1.53465
8.17884  1.1896
8.25485  0.834765
8.33086  0.360448
8.40688  0.675561
8.48289  -0.235269
8.5589  0.370144
8.63491  0.489148
8.71093  0.495647
8.78694  -0.402693
8.86295  -0.237476
8.93897  0.319312
9.01498  0.0651293
9.09099  0.630454
9.16701  2.1885
9.24302  3.54858
9.31903  7.99707
9.39505  16.4599
9.47106  37.5726
9.54707  98.2115
9.62308  248.506
9.6991  342.108
9.77511  264.489
9.85112  183.266
9.92714  123.654
10.0031  81.9175
10.0792  59.2517
10.1552  42.9919
10.2312  29.7993
10.3072  17.5082
10.3832  9.07816
10.4592  3.9992
10.5352  1.25601
10.6113  -0.480958
10.6873  -1.07315
10.7633  -0.0437541
10.8393  0.632402
10.9153  3.02178
10.9913  1.82891
11.0673  0.101701
11.1433  0.0601585
11.2194  0.68141
11.2954  0.565304
11.3714  0.582805
11.4474  0.470849
11.5234  0.674452
11.5994  0.522138
11.6754  1.11126
11.7515  -0.140207
11.8275  -0.240141
11.9035  -0.265651
11.9795  -0.463998
12.0555  0.271008
12.1315  1.99489
12.2075  5.91249
12.2835  12.637
12.3596  27.2227
12.4356  62.1436
12.5116  156.245
12.5876  361.237
12.6636  548.128
12.7396  489.577
12.8156  294.4
12.8916  131.608
12.9677  55.8516
13.0437  28.9822
13.1197  17.4621
13.1957  11.6621
13.2717  6.80546
13.3477  4.73845
13.4237  2.75621
13.4998  2.04837
13.5758  2.07174
13.6518  1.70863
13.7278  1.34349
13.8038  0.842686
13.8798  0.589328
13.9558  0.222681
14.0318  -0.389825
14.1079  -0.150816
14.1839  -0.570821
14.2599  0.427889
14.3359  0.367634
14.4119  2.03063
14.4879  4.97816
14.5639  9.48861
14.6399  7.68635
14.716  4.46928
14.792  2.75211
14.868  1.64927
14.944  0.969011
15.02  0.443129
15.096  0.525243
15.172  0.81521
15.2481  0.695933
15.3241  0.931602
15.4001  0.380714
15.4761  1.4099
15.5521  1.39029
15.6281  1.32876
15.7041  2.3045
15.7801  1.00219
15.8562  0.467147
15.9322  0.780628
16.0082  0.116584
16.0842  0.284875
16.1602  0.446093
16.2362  0.0474052
16.3122  0.628397
16.3882  2.07392
16.4643  4.17055
16.5403  7.30529
16.6163  11.687
16.6923  19.3918
16.7683  25.4781
16.8443  29.9309
16.9203  30.7798
16.9964  29.5272
17.0724  26.9094
17.1484  22.29
17.2244  18.1801
17.3004  15.2654
17.3764  12.7769
17.4524  10.1424
17.5284  6.86891
17.6045  4.05324
17.6805  2.77229
17.7565  1.91465
17.8325  1.64075
17.9085  1.41385
17.9845  1.62017
18.0605  1.80844
18.1365  2.11324
18.2126  3.18398
18.2886  3.98318
18.3646  4.91338
18.4406  7.91812
18.5166  15.6035
18.5926  23.9137
18.6686  32.1712
18.7447  35.1163
18.8207  32.7938
18.8967  26.6797
18.9727  18.1348
19.0487  8.6983
19.1247  2.87703
19.2007  -0.0190711
19.2767  1.20331
19.3528  1.47165
19.4288  1.31582
19.5048  0.75025
19.5808  -0.0473446
19.6568  -0.0150284
19.7328  0.649308
19.8088  0.951396
19.8848  0.550043
19.9609  0.392852
20.0369  -0.0329873
20.1129  0.427536
20.1889  -0.223559
20.2649  0.3636
20.3409  -0.070998
20.4169  0.235624
20.493  0.120227
20.569  0.23203
20.645  -0.0393892
20.721  -0.00564641
20.797  0.265499
20.873  0.540938
20.949  0.716155
21.025  0.454188
21.1011  0.28836
21.1771  0.479285
21.2531  0.787654
21.3291  0.250675
21.4051  0.195603
21.4811  0.171845
21.5571  0.216343
21.6331  0.28544
21.7092  0.227446
21.7852  -0.0122849
21.8612  -0.138901
21.9372  0.135714
22.0132  -0.113166
22.0322  0.0844815