Folder: remob2/data/raw/XRD/Run1_data_files

Note: data/raw/XRD/Run1_data_files/1_ReMoB2_0p25GPa_0psi_Au_P1.txt
Data collection values for: 1_ReMoB2_0p25GPa_0psi_Au_P1

Sample stack: BMDHP, Detector: 1M

Timestamp              File Name                         Cen X    Cen Y    Sam Z   Det. Y    Start      End  Images  Exp. time        CPS

10 Jul 2022 13:51:33   1_ReMoB2_0p25GPa_0psi_Au_P1_C1_D1w_020.tif    5.607   -0.823   -0.384   90.000    -2.00     2.00     1       40.000     299418

Note: data/raw/XRD/Run1_data_files/1_ReMoB2_0pGPa_0psi_Samp_P1.txt
Data collection values for: 1_ReMoB2_0pGPa_0psi_Samp_P1

Sample stack: BMDHP, Detector: 1M

Timestamp              File Name                         Cen X    Cen Y    Sam Z   Det. Y    Start      End  Images  Exp. time        CPS

10 Jul 2022 14:04:59   1_ReMoB2_0pGPa_0psi_Samp_P1_C1_D1w_021.tif    5.607   -0.796   -0.427   90.000    -2.00     2.00     1       40.000     298236
10 Jul 2022 14:05:57   1_ReMoB2_0pGPa_0psi_Samp_P1_C2_D1w_022.tif    5.607   -0.798   -0.405   90.000    -2.00     2.00     1       40.000     298101
10 Jul 2022 14:06:42   1_ReMoB2_0pGPa_0psi_Samp_P1_C3_D1w_023.tif    5.607   -0.778   -0.426   90.000    -2.00     2.00     1       40.000     297875
10 Jul 2022 14:07:27   1_ReMoB2_0pGPa_0psi_Samp_P1_C4_D1w_024.tif    5.607   -0.796   -0.449   90.000    -2.00     2.00     1       40.000     297839
10 Jul 2022 14:08:12   1_ReMoB2_0pGPa_0psi_Samp_P1_C5_D1w_025.tif    5.607   -0.816   -0.429   90.000    -2.00     2.00     1       40.000     297790

Note: data/raw/XRD/Run1_data_files/10_ReMoB2_49p0GPa_490psi_P1.txt
Data collection values for: 10_ReMoB2_49p0GPa_490psi_P1

Sample stack: BMDHP, Detector: 1M

Timestamp              File Name                         Cen X    Cen Y    Sam Z   Det. Y    Start      End  Images  Exp. time        CPS

10 Jul 2022 19:54:25   10_ReMoB2_49p0GPa_490psi_P1_C1_D1w_074.tif    5.576   -0.820   -0.433   90.000    -2.00     2.00     1       40.000     332648
10 Jul 2022 19:55:10   10_ReMoB2_49p0GPa_490psi_P1_C2_D1w_075.tif    5.576   -0.819   -0.421   90.000    -2.00     2.00     1       40.000     332466
10 Jul 2022 19:55:55   10_ReMoB2_49p0GPa_490psi_P1_C3_D1w_076.tif    5.576   -0.811   -0.432   90.000    -2.00     2.00     1       40.000     332394
10 Jul 2022 19:56:40   10_ReMoB2_49p0GPa_490psi_P1_C4_D1w_077.tif    5.576   -0.819   -0.445   90.000    -2.00     2.00     1       40.000     332472
10 Jul 2022 19:57:25   10_ReMoB2_49p0GPa_490psi_P1_C5_D1w_078.tif    5.576   -0.826   -0.434   90.000    -2.00     2.00     1       40.000     332322
10 Jul 2022 19:58:10   10_ReMoB2_49p0GPa_490psi_P1_C6_D1w_079.tif    5.576   -0.844   -0.389   90.000    -2.00     2.00     1       40.000     332205

Note: data/raw/XRD/Run1_data_files/11_ReMoB2_52p0GPa_520psi_P1.txt
Data collection values for: 11_ReMoB2_52p0GPa_520psi_P1

Sample stack: BMDHP, Detector: 1M

Timestamp              File Name                         Cen X    Cen Y    Sam Z   Det. Y    Start      End  Images  Exp. time        CPS

10 Jul 2022 20:13:18   11_ReMoB2_52p0GPa_520psi_P1_C1_D1w_080.tif    5.576   -0.822   -0.429   90.000    -2.00     2.00     1       40.000     329551
10 Jul 2022 20:14:03   11_ReMoB2_52p0GPa_520psi_P1_C2_D1w_081.tif    5.576   -0.823   -0.416   90.000    -2.00     2.00     1       40.000     329228
10 Jul 2022 20:14:48   11_ReMoB2_52p0GPa_520psi_P1_C3_D1w_082.tif    5.576   -0.815   -0.429   90.000    -2.00     2.00     1       40.000     329169
10 Jul 2022 20:15:33   11_ReMoB2_52p0GPa_520psi_P1_C4_D1w_083.tif    5.576   -0.820   -0.443   90.000    -2.00     2.00     1       40.000     329065
10 Jul 2022 20:16:18   11_ReMoB2_52p0GPa_520psi_P1_C5_D1w_084.tif    5.576   -0.829   -0.430   90.000    -2.00     2.00     1       40.000     329087
10 Jul 2022 20:17:02   11_ReMoB2_52p0GPa_520psi_P1_C6_D1w_085.tif    5.576   -0.846   -0.392   90.000    -2.00     2.00     1       40.000     328816

Note: data/raw/XRD/Run1_data_files/12_ReMoB2_60p0GPa_545psi_P1.txt
Data collection values for: 12_ReMoB2_60p0GPa_545psi_P1

Sample stack: BMDHP, Detector: 1M

Timestamp              File Name                         Cen X    Cen Y    Sam Z   Det. Y    Start      End  Images  Exp. time        CPS

10 Jul 2022 20:34:29   12_ReMoB2_60p0GPa_545psi_P1_C1_D1w_086.tif    5.576   -0.822   -0.430   90.000    -2.00     2.00     1       40.000     324793
10 Jul 2022 20:35:13   12_ReMoB2_60p0GPa_545psi_P1_C2_D1w_087.tif    5.576   -0.823   -0.419   90.000    -2.00     2.00     1       40.000     324583
10 Jul 2022 20:35:58   12_ReMoB2_60p0GPa_545psi_P1_C3_D1w_088.tif    5.576   -0.815   -0.431   90.000    -2.00     2.00     1       40.000     324542
10 Jul 2022 20:36:43   12_ReMoB2_60p0GPa_545psi_P1_C4_D1w_089.tif    5.576   -0.822   -0.443   90.000    -2.00     2.00     1       40.000     324230
10 Jul 2022 20:37:28   12_ReMoB2_60p0GPa_545psi_P1_C5_D1w_090.tif    5.576   -0.829   -0.432   90.000    -2.00     2.00     1       40.000     324443
10 Jul 2022 20:38:13   12_ReMoB2_60p0GPa_545psi_P1_C6_D1w_091.tif    5.576   -0.845   -0.391   90.000    -2.00     2.00     1       40.000     324094

Note: data/raw/XRD/Run1_data_files/13_ReMoB2_62p0GPa_570psi_P1.txt
Data collection values for: 13_ReMoB2_62p0GPa_570psi_P1

Sample stack: BMDHP, Detector: 1M

Timestamp              File Name                         Cen X    Cen Y    Sam Z   Det. Y    Start      End  Images  Exp. time        CPS

10 Jul 2022 20:56:11   13_ReMoB2_62p0GPa_570psi_P1_C1_D1w_092.tif    5.576   -0.821   -0.429   90.000    -2.00     2.00     1       40.000     321392
10 Jul 2022 20:56:55   13_ReMoB2_62p0GPa_570psi_P1_C2_D1w_093.tif    5.576   -0.820   -0.408   90.000    -2.00     2.00     1       40.000     321297
10 Jul 2022 20:57:40   13_ReMoB2_62p0GPa_570psi_P1_C3_D1w_094.tif    5.576   -0.805   -0.428   90.000    -2.00     2.00     1       40.000     321173
10 Jul 2022 20:58:25   13_ReMoB2_62p0GPa_570psi_P1_C4_D1w_095.tif    5.576   -0.822   -0.450   90.000    -2.00     2.00     1       40.000     321101
10 Jul 2022 20:59:10   13_ReMoB2_62p0GPa_570psi_P1_C5_D1w_096.tif    5.576   -0.839   -0.429   90.000    -2.00     2.00     1       40.000     320892
10 Jul 2022 20:59:55   13_ReMoB2_62p0GPa_570psi_P1_C6_D1w_097.tif    5.576   -0.853   -0.388   90.000    -2.00     2.00     1       40.000     320971
10 Jul 2022 21:11:20   13_ReMoB2_62p0GPa_570psi_P1_C1_D1w_098.tif    5.576   -0.847   -0.392   90.000    -2.00     2.00     1       40.000     319487

Note: data/raw/XRD/Run1_data_files/14_ReMoB2_66p0GPa_595psi_P1.txt
Data collection values for: 14_ReMoB2_66p0GPa_595psi_P1

Sample stack: BMDHP, Detector: 1M

Timestamp              File Name                         Cen X    Cen Y    Sam Z   Det. Y    Start      End  Images  Exp. time        CPS

10 Jul 2022 21:28:59   14_ReMoB2_66p0GPa_595psi_P1_C1_D1w_099.tif    5.576   -0.826   -0.427   90.000    -2.00     2.00     1       40.000     317466
10 Jul 2022 21:29:44   14_ReMoB2_66p0GPa_595psi_P1_C2_D1w_100.tif    5.576   -0.826   -0.405   90.000    -2.00     2.00     1       40.000     317416
10 Jul 2022 21:30:29   14_ReMoB2_66p0GPa_595psi_P1_C3_D1w_101.tif    5.576   -0.811   -0.426   90.000    -2.00     2.00     1       40.000     317390
10 Jul 2022 21:31:14   14_ReMoB2_66p0GPa_595psi_P1_C4_D1w_102.tif    5.576   -0.826   -0.446   90.000    -2.00     2.00     1       40.000     317285
10 Jul 2022 21:31:59   14_ReMoB2_66p0GPa_595psi_P1_C5_D1w_103.tif    5.576   -0.840   -0.427   90.000    -2.00     2.00     1       40.000     317222
10 Jul 2022 21:32:44   14_ReMoB2_66p0GPa_595psi_P1_C6_D1w_104.tif    5.576   -0.848   -0.394   90.000    -2.00     2.00     1       40.000     317353

Note: data/raw/XRD/README.md
Raw XRD data files obtained for Run 1 (300 um culet diamter) and Run 2 (150 um culet diamter).

File: 1_ReMoB2_0p25GPa_0psi_P1.txt
Data collection values for: 1_ReMoB2_0p25GPa_0psi_P1

Sample stack: BMDHP, Detector: 1M

Timestamp              File Name                         Cen X    Cen Y    Sam Z   Det. Y    Start      End  Images  Exp. time        CPS

10 Jul 2022 12:40:21   1_ReMoB2_0p25GPa_0psi_P1_C1_D1w_001.tif    5.606   -0.774   -0.376   90.000    -2.00     2.00     1       40.000     306183
10 Jul 2022 12:41:06   1_ReMoB2_0p25GPa_0psi_P1_C2_D1w_002.tif    5.606   -0.803   -0.389   90.000    -2.00     2.00     1       40.000     306242
10 Jul 2022 12:41:51   1_ReMoB2_0p25GPa_0psi_P1_C3_D1w_003.tif    5.606   -0.818   -0.417   90.000    -2.00     2.00     1       40.000     306239
10 Jul 2022 12:42:36   1_ReMoB2_0p25GPa_0psi_P1_C4_D1w_004.tif    5.606   -0.792   -0.470   90.000    -2.00     2.00     1       40.000     306089
10 Jul 2022 12:43:21   1_ReMoB2_0p25GPa_0psi_P1_C5_D1w_005.tif    5.606   -0.766   -0.474   90.000    -2.00     2.00     1       40.000     305996
10 Jul 2022 12:44:06   1_ReMoB2_0p25GPa_0psi_P1_C6_D1w_006.tif    5.606   -0.732   -0.454   90.000    -2.00     2.00     1       40.000     305935
10 Jul 2022 12:47:39   1_ReMoB2_0p25GPa_0psi_P1_C7_D1w_007.tif    5.606   -0.733   -0.418   90.000    -2.00     2.00     1       40.000     305611
10 Jul 2022 12:48:24   1_ReMoB2_0p25GPa_0psi_P1_C8_D1w_008.tif    5.606   -0.748   -0.394   90.000    -2.00     2.00     1       40.000     305593
10 Jul 2022 13:14:44   1_ReMoB2_0p25GPa_0psi_P1_C1_D1w_009.tif    5.606   -0.808   -0.392   90.000    -2.00     2.00     1       40.000     303063
10 Jul 2022 13:15:29   1_ReMoB2_0p25GPa_0psi_P1_C2_D1w_010.tif    5.606   -0.820   -0.417   90.000    -2.00     2.00     1       40.000     303020
10 Jul 2022 13:40:14   1_ReMoB2_0p25GPa_0psi_P1_C1_D1w_011.tif    5.607   -0.794   -0.372   90.000    -2.00     2.00     1       40.000     300564
10 Jul 2022 13:40:59   1_ReMoB2_0p25GPa_0psi_P1_C2_D1w_012.tif    5.607   -0.828   -0.384   90.000    -2.00     2.00     1       40.000     300438
10 Jul 2022 13:41:44   1_ReMoB2_0p25GPa_0psi_P1_C3_D1w_013.tif    5.607   -0.845   -0.410   90.000    -2.00     2.00     1       40.000     300470
10 Jul 2022 13:42:29   1_ReMoB2_0p25GPa_0psi_P1_C4_D1w_014.tif    5.607   -0.838   -0.453   90.000    -2.00     2.00     1       40.000     300304
10 Jul 2022 13:43:14   1_ReMoB2_0p25GPa_0psi_P1_C5_D1w_015.tif    5.607   -0.819   -0.475   90.000    -2.00     2.00     1       40.000     300246
10 Jul 2022 13:43:59   1_ReMoB2_0p25GPa_0psi_P1_C6_D1w_016.tif    5.607   -0.794   -0.477   90.000    -2.00     2.00     1       40.000     300135
10 Jul 2022 13:44:44   1_ReMoB2_0p25GPa_0psi_P1_C7_D1w_017.tif    5.607   -0.768   -0.468   90.000    -2.00     2.00     1       40.000     300063
10 Jul 2022 13:45:29   1_ReMoB2_0p25GPa_0psi_P1_C8_D1w_018.tif    5.607   -0.753   -0.446   90.000    -2.00     2.00     1       40.000     299951
10 Jul 2022 13:46:14   1_ReMoB2_0p25GPa_0psi_P1_C9_D1w_019.tif    5.607   -0.745   -0.423   90.000    -2.00     2.00     1       40.000     299946